square,loc1,loc2,corrAns,trials1.thisRepN,trials1.thisTrialN,trials1.thisN,trials1.thisIndex,trials2.thisRepN,trials2.thisTrialN,trials2.thisN,trials2.thisIndex,trials.thisRepN,trials.thisTrialN,trials.thisN,trials.thisIndex,thisRow.t,notes,instr1.started,instr1.stopped,fix1.started,fix1.stopped,trialGrid.started,trialGrid.stopped,trialSquare.started,trialSquare.stopped,trialFix.started,trialFix.stopped,trialResp.keys,trialResp.corr,trialResp.started,trialResp.stopped,trialResp.rt,instr2.started,instr2.stopped,fix2.started,fix2.stopped,instr3.started,instr3.stopped,fix3.started,fix3.stopped,thanks.started,thanks.stopped,participant,session,date,expName,psychopyVersion,frameRate,
6,0.2,0,None,0,0,0,0,,,,,,,,,,,11.711490399902686,None,27.73393139988184,None,28.7833404999692,None,28.7833404999692,29.7845093999058,29.7845093999058,None,None,1,28.7833404999692,None,,,,,,,,,,,,1,001,2026-02-24_09h12.39.288,n-back-testing,2020.1.3,60.21118470511326,
6,0.2,0,space,0,1,1,1,,,,,,,,,,,,,,,30.75153229990974,None,30.75153229990974,31.751203399850056,31.7348587999586,32.735060499981046,space,1,30.75153229990974,None,0.9814828999806195,,,,,,,,,,,1,001,2026-02-24_09h12.39.288,n-back-testing,2020.1.3,60.21118470511326,
2,0,0.2,None,0,2,2,2,,,,,,,,,,,,,,,32.75103869987652,None,32.75103869987652,33.75160429999232,33.73469159984961,34.7348799998872,None,1,32.75103869987652,None,,,,,,,,,,,,1,001,2026-02-24_09h12.39.288,n-back-testing,2020.1.3,60.21118470511326,
9,0.2,-0.2,None,0,3,3,3,,,,,,,,,,,,,,,34.75140989990905,None,34.75140989990905,35.75137409986928,35.734417599858716,36.73399299988523,None,1,34.75140989990905,None,,,,,,,,,,,,1,001,2026-02-24_09h12.39.288,n-back-testing,2020.1.3,60.21118470511326,
9,0.2,-0.2,space,0,4,4,4,,,,,,,,,,,,,,,36.751591600012034,None,36.751591600012034,37.751339899841696,37.73450200003572,38.734767199959606,space,1,36.751591600012034,None,0.6683930000290275,,,,,,,,,,,1,001,2026-02-24_09h12.39.288,n-back-testing,2020.1.3,60.21118470511326,
6,0.2,0,None,0,5,5,5,,,,,,,,,,,,,,,38.75135440006852,None,38.75135440006852,39.75086729996838,39.733941099839285,40.734129999997094,None,1,38.75135440006852,None,,,,,,,,,,,,1,001,2026-02-24_09h12.39.288,n-back-testing,2020.1.3,60.21118470511326,
4,-0.2,0,None,0,6,6,6,,,,,,,,,,,,,,,40.75111939990893,None,40.75111939990893,41.7514187998604,41.73405119986273,42.73445390001871,None,1,40.75111939990893,None,,,,,,,,,,,,1,001,2026-02-24_09h12.39.288,n-back-testing,2020.1.3,60.21118470511326,
3,0.2,0.2,None,0,7,7,7,,,,,,,,,,,,,,,42.751492799958214,None,42.751492799958214,43.75107849994674,43.73414309998043,44.734126899857074,None,1,42.751492799958214,None,,,,,,,,,,,,1,001,2026-02-24_09h12.39.288,n-back-testing,2020.1.3,60.21118470511326,
3,0.2,0.2,space,0,8,8,8,,,,,,,,,,,,,,,44.750812199898064,None,44.750812199898064,45.75108049996197,45.73418919998221,46.7344895999413,space,1,44.750812199898064,None,0.633184100035578,,,,,,,,,,,1,001,2026-02-24_09h12.39.288,n-back-testing,2020.1.3,60.21118470511326,
8,0,-0.2,None,0,9,9,9,,,,,,,,,,,,,,,46.750677899923176,None,46.750677899923176,47.75042409985326,47.73417429998517,48.734099299879745,None,1,46.750677899923176,None,,,,,,,,,,,,1,001,2026-02-24_09h12.39.288,n-back-testing,2020.1.3,60.21118470511326,
1,-0.2,0.2,None,0,10,10,10,,,,,,,,,,,,,,,48.75103779998608,None,48.75103779998608,49.751088900025934,49.734132200013846,50.73407020000741,None,1,48.75103779998608,None,,,,,,,,,,,,1,001,2026-02-24_09h12.39.288,n-back-testing,2020.1.3,60.21118470511326,
2,0,0.2,None,0,11,11,11,,,,,,,,,,,,,,,50.7509705000557,None,50.7509705000557,51.75080469995737,51.733989199856296,52.73366370005533,None,1,50.7509705000557,None,,,,,,,,,,,,1,001,2026-02-24_09h12.39.288,n-back-testing,2020.1.3,60.21118470511326,
4,-0.2,0,None,0,12,12,12,,,,,,,,,,,,,,,52.750935199903324,None,52.750935199903324,53.75006889994256,53.73363159992732,54.73422189988196,None,1,52.750935199903324,None,,,,,,,,,,,,1,001,2026-02-24_09h12.39.288,n-back-testing,2020.1.3,60.21118470511326,
4,-0.2,0,space,0,13,13,13,,,,,,,,,,,,,,,54.75090390001424,None,54.75090390001424,55.75001610000618,55.73350939992815,56.73361229989678,space,1,54.75090390001424,None,0.504408799810335,,,,,,,,,,,1,001,2026-02-24_09h12.39.288,n-back-testing,2020.1.3,60.21118470511326,
8,0,-0.2,None,0,14,14,14,,,,,,,,,,,,,,,56.750480300048366,None,56.750480300048366,57.750302699860185,57.73423569998704,58.733796400018036,None,1,56.750480300048366,None,,,,,,,,,,,,1,001,2026-02-24_09h12.39.288,n-back-testing,2020.1.3,60.21118470511326,
5,0,0,None,0,15,15,15,,,,,,,,,,,,,,,58.75040949997492,None,58.75040949997492,59.75105699989945,59.73353479988873,60.73365670000203,None,1,58.75040949997492,None,,,,,,,,,,,,1,001,2026-02-24_09h12.39.288,n-back-testing,2020.1.3,60.21118470511326,
5,0,0,space,0,16,16,16,,,,,,,,,,,,,,,60.75020959996618,None,60.75020959996618,61.750605300068855,61.733908999944106,62.733801499940455,space,1,60.75020959996618,None,0.6144073999021202,,,,,,,,,,,1,001,2026-02-24_09h12.39.288,n-back-testing,2020.1.3,60.21118470511326,
1,-0.2,0.2,None,0,17,17,17,,,,,,,,,,,,,,,62.749985500006005,None,62.749985500006005,63.75005479995161,63.733859800035134,64.73343349993229,None,1,62.749985500006005,None,,,,,,,,,,,,1,001,2026-02-24_09h12.39.288,n-back-testing,2020.1.3,60.21118470511326,
3,0.2,0.2,None,0,18,18,18,,,,,,,,,,,,,,,64.75064520002343,None,64.75064520002343,65.75023399991915,65.7335260999389,66.73358440003358,None,1,64.75064520002343,None,,,,,,,,,,,,1,001,2026-02-24_09h12.39.288,n-back-testing,2020.1.3,60.21118470511326,
6,0.2,0,None,0,19,19,19,,,,,,,,,,,,,,,66.75025189993903,None,66.75025189993903,67.75011619995348,67.7329744999297,68.73418390005827,None,1,66.75025189993903,None,,,,,,,,,,,,1,001,2026-02-24_09h12.39.288,n-back-testing,2020.1.3,60.21118470511326,
1,-0.2,0.2,None,0,20,20,20,,,,,,,,,,,,,,,68.74946859991178,None,68.74946859991178,69.74978039995767,69.7330122999847,70.73261759988964,None,1,68.74946859991178,None,,,,,,,,,,,,1,001,2026-02-24_09h12.39.288,n-back-testing,2020.1.3,60.21118470511326,
1,-0.2,0.2,space,0,21,21,21,,,,,,,,,,,,,,,70.74953799997456,None,70.74953799997456,71.74927520006895,71.73351210006513,72.73310870002024,space,1,70.74953799997456,None,0.7525615999475121,,,,,,,,,,,1,001,2026-02-24_09h12.39.288,n-back-testing,2020.1.3,60.21118470511326,
1,-0.2,0.2,space,0,22,22,22,,,,,,,,,,,,,,,72.74995859991759,None,72.74995859991759,73.74969549989328,73.7333343999926,74.73254269990139,space,1,72.74995859991759,None,0.6457130999770015,,,,,,,,,,,1,001,2026-02-24_09h12.39.288,n-back-testing,2020.1.3,60.21118470511326,
3,0.2,0.2,None,0,23,23,23,,,,,,,,,,,,,,,74.7499647999648,None,74.7499647999648,75.749931700062,75.73327969992533,None,None,1,74.7499647999648,None,,,,,,,,,,,,1,001,2026-02-24_09h12.39.288,n-back-testing,2020.1.3,60.21118470511326,
2,0,0.2,None,0,24,24,24,,,,,,,,,,,,,,,76.74911920004524,None,76.74911920004524,77.7499176999554,77.73304619989358,78.73282639984973,None,1,76.74911920004524,None,,,,,,,,,,,,1,001,2026-02-24_09h12.39.288,n-back-testing,2020.1.3,60.21118470511326,
1,-0.2,0.2,None,0,25,25,25,,,,,,,,,,,,,,,78.74983029998839,None,78.74983029998839,79.74958479986526,79.73316000006162,80.732812799979,None,1,78.74983029998839,None,,,,,,,,,,,,1,001,2026-02-24_09h12.39.288,n-back-testing,2020.1.3,60.21118470511326,
7,-0.2,-0.2,None,0,26,26,26,,,,,,,,,,,,,,,80.74961579986848,None,80.74961579986848,81.74954420002177,81.73308119992726,82.73232509987429,None,1,80.74961579986848,None,,,,,,,,,,,,1,001,2026-02-24_09h12.39.288,n-back-testing,2020.1.3,60.21118470511326,
7,-0.2,-0.2,space,0,27,27,27,,,,,,,,,,,,,,,82.74972279998474,None,82.74972279998474,83.74974850006402,83.7330326999072,84.73295370000415,space,1,82.74972279998474,None,0.4685188999865204,,,,,,,,,,,1,001,2026-02-24_09h12.39.288,n-back-testing,2020.1.3,60.21118470511326,
2,0,0.2,None,0,28,28,28,,,,,,,,,,,,,,,84.74932019994594,None,84.74932019994594,85.74928519991226,85.73301779991016,86.73244909988716,None,1,84.74932019994594,None,,,,,,,,,,,,1,001,2026-02-24_09h12.39.288,n-back-testing,2020.1.3,60.21118470511326,
6,0.2,0,None,0,29,29,29,,,,,,,,,,,,,,,86.74886219995096,None,86.74886219995096,87.74890260002576,87.73188959993422,88.73256799997762,None,1,86.74886219995096,None,,,,,,,,,,,,1,001,2026-02-24_09h12.39.288,n-back-testing,2020.1.3,60.21118470511326,
4,-0.2,0,None,0,30,30,30,,,,,,,,,,,,,,,88.74889589985833,None,88.74889589985833,89.74886170006357,89.73288829997182,90.7327920999378,None,1,88.74889589985833,None,,,,,,,,,,,,1,001,2026-02-24_09h12.39.288,n-back-testing,2020.1.3,60.21118470511326,
4,-0.2,0,space,0,31,31,31,,,,,,,,,,,,,,,90.74897109996527,None,90.74897109996527,91.74961249995977,91.73273529997095,None,space,1,90.74897109996527,None,0.5576663999818265,,,,,,,,,,,1,001,2026-02-24_09h12.39.288,n-back-testing,2020.1.3,60.21118470511326,
2,0,0.2,None,0,32,32,32,,,,,,,,,,,,,,,92.7486439999193,None,92.7486439999193,93.74902189988643,93.73236929997802,94.73230140004307,None,1,92.7486439999193,None,,,,,,,,,,,,1,001,2026-02-24_09h12.39.288,n-back-testing,2020.1.3,60.21118470511326,
9,0.2,-0.2,None,0,33,33,33,,,,,,,,,,,,,,,94.7490127000492,None,94.7490127000492,95.74909329996444,95.73186219995841,96.73208669992164,None,1,94.7490127000492,None,,,,,,,,,,,,1,001,2026-02-24_09h12.39.288,n-back-testing,2020.1.3,60.21118470511326,
9,0.2,-0.2,space,0,34,34,34,,,,,,,,,,,,,,,96.74832689994946,None,96.74832689994946,97.74823739985004,97.73167119990103,98.73195589985698,space,1,96.74832689994946,None,0.5921564002055675,,,,,,,,,,,1,001,2026-02-24_09h12.39.288,n-back-testing,2020.1.3,60.21118470511326,
3,0.2,0.2,None,0,35,35,35,,,,,,,,,,,,,,,98.74885779991746,None,98.74885779991746,99.7487588999793,99.73201299994253,100.73174209985882,None,1,98.74885779991746,None,,,,,,,,,,,,1,001,2026-02-24_09h12.39.288,n-back-testing,2020.1.3,60.21118470511326,
7,-0.2,-0.2,None,0,36,36,36,,,,,,,,,,,,,,,100.74834449985065,None,100.74834449985065,101.74834980000742,101.73223589989357,102.7320031998679,None,1,100.74834449985065,None,,,,,,,,,,,,1,001,2026-02-24_09h12.39.288,n-back-testing,2020.1.3,60.21118470511326,
7,-0.2,-0.2,space,0,37,37,37,,,,,,,,,,,,,,,102.74816369987093,None,102.74816369987093,103.74856480001472,103.73220149986446,104.73114879988134,space,1,102.74816369987093,None,0.48231410002335906,,,,,,,,,,,1,001,2026-02-24_09h12.39.288,n-back-testing,2020.1.3,60.21118470511326,
7,-0.2,-0.2,space,0,38,38,38,,,,,,,,,,,,,,,104.7488255999051,None,104.7488255999051,105.74862039997242,105.73133659991436,106.73139739991166,space,1,104.7488255999051,None,0.6316758999601007,,,,,,,,,,,1,001,2026-02-24_09h12.39.288,n-back-testing,2020.1.3,60.21118470511326,
6,0.2,0,None,0,39,39,39,,,,,,,,,,,,,,,106.74816709989682,None,106.74816709989682,107.74861799995415,107.7320197999943,108.73189519997686,None,1,106.74816709989682,None,,,,,,,,,,,,1,001,2026-02-24_09h12.39.288,n-back-testing,2020.1.3,60.21118470511326,
6,0.2,0,space,0,40,40,40,,,,,,,,,,,,,,,108.74817809998058,None,108.74817809998058,109.7485078999307,109.7311457998585,110.73178689996712,space,1,108.74817809998058,None,0.6816908000037074,,,,,,,,,,,1,001,2026-02-24_09h12.39.288,n-back-testing,2020.1.3,60.21118470511326,
1,-0.2,0.2,None,0,41,41,41,,,,,,,,,,,,,,,110.74807409988716,None,110.74807409988716,111.74832349992357,111.73171820002608,112.73143869987689,None,1,110.74807409988716,None,,,,,,,,,,,,1,001,2026-02-24_09h12.39.288,n-back-testing,2020.1.3,60.21118470511326,
5,0,0,None,0,42,42,42,,,,,,,,,,,,,,,112.74834389984608,None,112.74834389984608,113.74767880002037,113.73149589984678,114.73157259984873,None,1,112.74834389984608,None,,,,,,,,,,,,1,001,2026-02-24_09h12.39.288,n-back-testing,2020.1.3,60.21118470511326,
3,0.2,0.2,None,0,43,43,43,,,,,,,,,,,,,,,114.7479755000677,None,114.7479755000677,115.74815139989369,115.73153840005398,116.73133169999346,None,1,114.7479755000677,None,,,,,,,,,,,,1,001,2026-02-24_09h12.39.288,n-back-testing,2020.1.3,60.21118470511326,
1,-0.2,0.2,None,0,44,44,44,,,,,,,,,,,,,,,116.74803989985958,None,116.74803989985958,117.7480337000452,117.73164949985221,118.73186419997364,None,1,116.74803989985958,None,,,,,,,,,,,,1,001,2026-02-24_09h12.39.288,n-back-testing,2020.1.3,60.21118470511326,
7,-0.2,-0.2,None,0,45,45,45,,,,,,,,,,,,,,,118.74746099999174,None,118.74746099999174,119.74812719994225,119.73156480002217,120.73108259984292,None,1,118.74746099999174,None,,,,,,,,,,,,1,001,2026-02-24_09h12.39.288,n-back-testing,2020.1.3,60.21118470511326,
3,0.2,0.2,None,0,46,46,46,,,,,,,,,,,,,,,120.74846270005219,None,120.74846270005219,121.76451479992829,121.73052139999345,122.73068029992282,None,1,120.74846270005219,None,,,,,,,,,,,,1,001,2026-02-24_09h12.39.288,n-back-testing,2020.1.3,60.21118470511326,
3,0.2,0.2,space,0,47,47,47,,,,,,,,,,,,,,,122.74781919992529,None,122.74781919992529,123.74799359985627,123.73094050004147,124.73150729993358,space,1,122.74781919992529,None,0.5386888000648469,,,,,,,,,,,1,001,2026-02-24_09h12.39.288,n-back-testing,2020.1.3,60.21118470511326,
9,0.2,-0.2,None,0,48,48,48,,,,,,,,,,,,,,,124.74809019989334,None,124.74809019989334,125.74794529983774,125.73100219992921,126.73121219989844,None,1,124.74809019989334,None,,,,,,,,,,,,1,001,2026-02-24_09h12.39.288,n-back-testing,2020.1.3,60.21118470511326,
7,-0.2,-0.2,None,0,49,49,49,,,,,,,,,,,,,,,126.74770929990336,None,126.74770929990336,127.74766090000048,127.73087770002894,128.73116960003972,None,1,126.74770929990336,None,,,,,,,,,,,,1,001,2026-02-24_09h12.39.288,n-back-testing,2020.1.3,60.21118470511326,
5,0,0,None,0,50,50,50,,,,,,,,,,,,,,,128.74742499995045,None,128.74742499995045,129.74756399984471,129.73043080000207,130.73040569992736,None,1,128.74742499995045,None,,,,,,,,,,,,1,001,2026-02-24_09h12.39.288,n-back-testing,2020.1.3,60.21118470511326,
8,0,-0.2,None,0,51,51,51,,,,,,,,,,,,,,,130.74696659995243,None,130.74696659995243,131.7473867998924,131.73098720004782,132.73056579986587,None,1,130.74696659995243,None,,,,,,,,,,,,1,001,2026-02-24_09h12.39.288,n-back-testing,2020.1.3,60.21118470511326,
8,0,-0.2,space,0,52,52,52,,,,,,,,,,,,,,,132.74753699987195,None,132.74753699987195,133.7471622999292,133.73087590001523,134.73093229997903,space,1,132.74753699987195,None,0.6028096999507397,,,,,,,,,,,1,001,2026-02-24_09h12.39.288,n-back-testing,2020.1.3,60.21118470511326,
7,-0.2,-0.2,None,0,53,53,53,,,,,,,,,,,,,,,134.7471870998852,None,134.7471870998852,135.74727659998462,135.73109909985214,136.73078189999796,None,1,134.7471870998852,None,,,,,,,,,,,,1,001,2026-02-24_09h12.39.288,n-back-testing,2020.1.3,60.21118470511326,
4,-0.2,0,None,0,54,54,54,,,,,,,,,,,,,,,136.74679809994996,None,136.74679809994996,137.74673340003937,137.73035369999707,138.7297292998992,None,1,136.74679809994996,None,,,,,,,,,,,,1,001,2026-02-24_09h12.39.288,n-back-testing,2020.1.3,60.21118470511326,
5,0,0,None,0,55,55,55,,,,,,,,,,,,,,,138.74690959998406,None,138.74690959998406,139.74626909988,139.7302314999979,140.73027820000425,None,1,138.74690959998406,None,,,,,,,,,,,,1,001,2026-02-24_09h12.39.288,n-back-testing,2020.1.3,60.21118470511326,
5,0,0,space,0,56,56,56,,,,,,,,,,,,,,,140.7476408998482,None,140.7476408998482,141.74700640002266,141.7305544000119,142.73013329994865,space,1,140.7476408998482,None,0.4765083999373019,,,,,,,,,,,1,001,2026-02-24_09h12.39.288,n-back-testing,2020.1.3,60.21118470511326,
2,0,0.2,None,0,57,57,57,,,,,,,,,,,,,,,142.74815559992567,None,142.74815559992567,143.76398579985835,143.73028200003318,144.73004239983857,None,1,142.74815559992567,None,,,,,,,,,,,,1,001,2026-02-24_09h12.39.288,n-back-testing,2020.1.3,60.21118470511326,
2,0,0.2,space,0,58,58,58,,,,,,,,,,,,,,,144.7466664998792,None,144.7466664998792,145.7461830000393,145.72954669990577,146.73034060001373,space,1,144.7466664998792,None,0.6575135998427868,,,,,,,,,,,1,001,2026-02-24_09h12.39.288,n-back-testing,2020.1.3,60.21118470511326,
6,0.2,0,None,0,59,59,59,,,,,,,,,,,,,,,146.74648059997708,None,146.74648059997708,147.74594239983708,147.73042070004158,148.72983239986934,None,1,146.74648059997708,None,,,,,,,,,,,,1,001,2026-02-24_09h12.39.288,n-back-testing,2020.1.3,60.21118470511326,
5,0,0,None,,,,,0,0,0,0,,,,,,,,,,,171.58830629987642,None,171.58830629987642,172.59610209986567,172.57879309984855,173.5790855998639,None,1,171.58830629987642,None,,148.74694869993255,None,170.5781616999302,None,,,,,,,1,001,2026-02-24_09h12.39.288,n-back-testing,2020.1.3,60.21118470511326,
2,0,0.2,None,,,,,0,1,1,1,,,,,,,,,,,173.59622099995613,None,173.59622099995613,174.59558760002255,174.57882210006937,175.5793673999142,None,1,173.59622099995613,None,,,,,,,,,,,,1,001,2026-02-24_09h12.39.288,n-back-testing,2020.1.3,60.21118470511326,
6,0.2,0,None,,,,,0,2,2,2,,,,,,,,,,,175.5951330999378,None,175.5951330999378,176.5951650000643,176.5785610000603,177.57832149998285,None,1,175.5951330999378,None,,,,,,,,,,,,1,001,2026-02-24_09h12.39.288,n-back-testing,2020.1.3,60.21118470511326,
9,0.2,-0.2,None,,,,,0,3,3,3,,,,,,,,,,,177.59564219997264,None,177.59564219997264,178.59525789995678,178.57854510005563,179.5784757998772,None,1,177.59564219997264,None,,,,,,,,,,,,1,001,2026-02-24_09h12.39.288,n-back-testing,2020.1.3,60.21118470511326,
3,0.2,0.2,None,,,,,0,4,4,4,,,,,,,,,,,179.5946764999535,None,179.5946764999535,180.5952006999869,180.5785983998794,181.5788271999918,None,1,179.5946764999535,None,,,,,,,,,,,,1,001,2026-02-24_09h12.39.288,n-back-testing,2020.1.3,60.21118470511326,
9,0.2,-0.2,space,,,,,0,5,5,5,,,,,,,,,,,181.59522969997488,None,181.59522969997488,182.5949382998515,182.57818780001253,183.5788505000528,space,1,181.59522969997488,None,0.62444410007447,,,,,,,,,,,1,001,2026-02-24_09h12.39.288,n-back-testing,2020.1.3,60.21118470511326,
7,-0.2,-0.2,None,,,,,0,6,6,6,,,,,,,,,,,183.59480449999683,None,183.59480449999683,184.59501369995996,184.57836439996026,185.5782329000067,None,1,183.59480449999683,None,,,,,,,,,,,,1,001,2026-02-24_09h12.39.288,n-back-testing,2020.1.3,60.21118470511326,
1,-0.2,0.2,None,,,,,0,7,7,7,,,,,,,,,,,185.5951516998466,None,185.5951516998466,186.59494169987738,186.57860270002857,187.5780933999922,None,1,185.5951516998466,None,,,,,,,,,,,,1,001,2026-02-24_09h12.39.288,n-back-testing,2020.1.3,60.21118470511326,
5,0,0,None,,,,,0,8,8,8,,,,,,,,,,,187.59512529987842,None,187.59512529987842,188.59473449992947,188.57795229996555,189.57754169986583,None,1,187.59512529987842,None,,,,,,,,,,,,1,001,2026-02-24_09h12.39.288,n-back-testing,2020.1.3,60.21118470511326,
7,-0.2,-0.2,None,,,,,0,9,9,9,,,,,,,,,,,189.59434559987858,None,189.59434559987858,190.59400089993142,190.57770189992152,191.57732669985853,None,1,189.59434559987858,None,,,,,,,,,,,,1,001,2026-02-24_09h12.39.288,n-back-testing,2020.1.3,60.21118470511326,
5,0,0,space,,,,,0,10,10,10,,,,,,,,,,,191.59416979993694,None,191.59416979993694,192.5940276000183,192.57732279994525,193.577176499879,space,1,191.59416979993694,None,0.9079424000810832,,,,,,,,,,,1,001,2026-02-24_09h12.39.288,n-back-testing,2020.1.3,60.21118470511326,
6,0.2,0,None,,,,,0,11,11,11,,,,,,,,,,,193.59401430003345,None,193.59401430003345,194.59461729996838,194.57804439985193,195.5776183998678,None,1,193.59401430003345,None,,,,,,,,,,,,1,001,2026-02-24_09h12.39.288,n-back-testing,2020.1.3,60.21118470511326,
3,0.2,0.2,None,,,,,0,12,12,12,,,,,,,,,,,195.59402439999394,None,195.59402439999394,196.59452309994958,196.57782400003634,197.57750959997065,None,1,195.59402439999394,None,,,,,,,,,,,,1,001,2026-02-24_09h12.39.288,n-back-testing,2020.1.3,60.21118470511326,
6,0.2,0,space,,,,,0,13,13,13,,,,,,,,,,,197.59418349992484,None,197.59418349992484,198.59408880001865,198.57773129991256,199.57732789986767,None,0,197.59418349992484,None,,,,,,,,,,,,1,001,2026-02-24_09h12.39.288,n-back-testing,2020.1.3,60.21118470511326,
8,0,-0.2,None,,,,,0,14,14,14,,,,,,,,,,,199.59465559991077,None,199.59465559991077,200.59464380005375,200.577884899918,201.57803299999796,None,1,199.59465559991077,None,,,,,,,,,,,,1,001,2026-02-24_09h12.39.288,n-back-testing,2020.1.3,60.21118470511326,
9,0.2,-0.2,None,,,,,0,15,15,15,,,,,,,,,,,201.5955576999113,None,201.5955576999113,202.6110298000276,202.57761280005798,203.57749379985034,None,1,201.5955576999113,None,,,,,,,,,,,,1,001,2026-02-24_09h12.39.288,n-back-testing,2020.1.3,60.21118470511326,
9,0.2,-0.2,None,,,,,0,16,16,16,,,,,,,,,,,203.5942116000224,None,203.5942116000224,204.59411499998532,204.5772475998383,205.57698710006662,space,0,203.5942116000224,None,0.9024185000453144,,,,,,,,,,,1,001,2026-02-24_09h12.39.288,n-back-testing,2020.1.3,60.21118470511326,
1,-0.2,0.2,None,,,,,0,17,17,17,,,,,,,,,,,205.59351909998804,None,205.59351909998804,206.59400619985536,206.57774119987153,207.57701290003024,None,1,205.59351909998804,None,,,,,,,,,,,,1,001,2026-02-24_09h12.39.288,n-back-testing,2020.1.3,60.21118470511326,
3,0.2,0.2,None,,,,,0,18,18,18,,,,,,,,,,,207.59382299985737,None,207.59382299985737,208.59409200004302,208.57743429997936,209.57728419988416,None,1,207.59382299985737,None,,,,,,,,,,,,1,001,2026-02-24_09h12.39.288,n-back-testing,2020.1.3,60.21118470511326,
5,0,0,None,,,,,0,19,19,19,,,,,,,,,,,209.59387199999765,None,209.59387199999765,210.59399569989182,210.5774351998698,211.5771259998437,None,1,209.59387199999765,None,,,,,,,,,,,,1,001,2026-02-24_09h12.39.288,n-back-testing,2020.1.3,60.21118470511326,
3,0.2,0.2,space,,,,,0,20,20,20,,,,,,,,,,,211.59345229994506,None,211.59345229994506,212.59390529990196,212.57713170000352,213.57736549992114,None,0,211.59345229994506,None,,,,,,,,,,,,1,001,2026-02-24_09h12.39.288,n-back-testing,2020.1.3,60.21118470511326,
4,-0.2,0,None,,,,,0,21,21,21,,,,,,,,,,,213.59365030005574,None,213.59365030005574,214.59353709989227,214.57734299986623,215.5774117000401,None,1,213.59365030005574,None,,,,,,,,,,,,1,001,2026-02-24_09h12.39.288,n-back-testing,2020.1.3,60.21118470511326,
7,-0.2,-0.2,None,,,,,0,22,22,22,,,,,,,,,,,215.59404690004885,None,215.59404690004885,216.59380759997293,216.5770439999178,217.57709240005352,None,1,215.59404690004885,None,,,,,,,,,,,,1,001,2026-02-24_09h12.39.288,n-back-testing,2020.1.3,60.21118470511326,
4,-0.2,0,space,,,,,0,23,23,23,,,,,,,,,,,217.59339519985951,None,217.59339519985951,218.59322279994376,218.57661109999754,219.57706569996662,space,1,217.59339519985951,None,1.149260399863124,,,,,,,,,,,1,001,2026-02-24_09h12.39.288,n-back-testing,2020.1.3,60.21118470511326,
4,-0.2,0,None,,,,,0,24,24,24,,,,,,,,,,,219.59323829994537,None,219.59323829994537,220.5939358000178,220.5768700998742,221.57720989990048,None,1,219.59323829994537,None,,,,,,,,,,,,1,001,2026-02-24_09h12.39.288,n-back-testing,2020.1.3,60.21118470511326,
5,0,0,None,,,,,0,25,25,25,,,,,,,,,,,221.59375709993765,None,221.59375709993765,222.59346989984624,222.57634059991688,223.57705749990419,None,1,221.59375709993765,None,,,,,,,,,,,,1,001,2026-02-24_09h12.39.288,n-back-testing,2020.1.3,60.21118470511326,
2,0,0.2,None,,,,,0,26,26,26,,,,,,,,,,,223.59308879985474,None,223.59308879985474,224.593721000012,224.5770954999607,225.57709609996527,None,1,223.59308879985474,None,,,,,,,,,,,,1,001,2026-02-24_09h12.39.288,n-back-testing,2020.1.3,60.21118470511326,
6,0.2,0,None,,,,,0,27,27,27,,,,,,,,,,,225.5935313999653,None,225.5935313999653,226.59369089989923,226.5770690999925,227.57654040004127,None,1,225.5935313999653,None,,,,,,,,,,,,1,001,2026-02-24_09h12.39.288,n-back-testing,2020.1.3,60.21118470511326,
7,-0.2,-0.2,None,,,,,0,28,28,28,,,,,,,,,,,227.59353099996224,None,227.59353099996224,228.59350099996664,228.57700679986738,229.57673810003325,None,1,227.59353099996224,None,,,,,,,,,,,,1,001,2026-02-24_09h12.39.288,n-back-testing,2020.1.3,60.21118470511326,
6,0.2,0,space,,,,,0,29,29,29,,,,,,,,,,,229.59331579995342,None,229.59331579995342,230.5931059999857,230.57675819983706,231.57618019985966,space,1,229.59331579995342,None,1.370086699957028,,,,,,,,,,,1,001,2026-02-24_09h12.39.288,n-back-testing,2020.1.3,60.21118470511326,
8,0,-0.2,None,,,,,0,30,30,30,,,,,,,,,,,231.59277649992146,None,231.59277649992146,232.59357849997468,232.57625689986162,233.57581519987434,None,1,231.59277649992146,None,,,,,,,,,,,,1,001,2026-02-24_09h12.39.288,n-back-testing,2020.1.3,60.21118470511326,
2,0,0.2,None,,,,,0,31,31,31,,,,,,,,,,,233.5930711000692,None,233.5930711000692,234.59306350001134,234.57620129990391,235.57569719990715,None,1,233.5930711000692,None,,,,,,,,,,,,1,001,2026-02-24_09h12.39.288,n-back-testing,2020.1.3,60.21118470511326,
8,0,-0.2,space,,,,,0,32,32,32,,,,,,,,,,,235.5927746000234,None,235.5927746000234,236.59234520001337,236.57561809988692,237.5761208999902,space,1,235.5927746000234,None,1.1496578000951558,,,,,,,,,,,1,001,2026-02-24_09h12.39.288,n-back-testing,2020.1.3,60.21118470511326,
9,0.2,-0.2,None,,,,,0,33,33,33,,,,,,,,,,,237.59313339996152,None,237.59313339996152,238.5922775999643,238.57581229996867,239.57589829992503,None,1,237.59313339996152,None,,,,,,,,,,,,1,001,2026-02-24_09h12.39.288,n-back-testing,2020.1.3,60.21118470511326,
6,0.2,0,None,,,,,0,34,34,34,,,,,,,,,,,239.5929662999697,None,239.5929662999697,240.59273529984057,240.5763347998727,241.57662199996412,None,1,239.5929662999697,None,,,,,,,,,,,,1,001,2026-02-24_09h12.39.288,n-back-testing,2020.1.3,60.21118470511326,
9,0.2,-0.2,space,,,,,0,35,35,35,,,,,,,,,,,241.59283489990048,None,241.59283489990048,242.5928517000284,242.57625039992854,243.576133799972,None,0,241.59283489990048,None,,,,,,,,,,,,1,001,2026-02-24_09h12.39.288,n-back-testing,2020.1.3,60.21118470511326,
4,-0.2,0,None,,,,,0,36,36,36,,,,,,,,,,,243.5926296999678,None,243.5926296999678,244.5926500998903,244.576023099944,245.57613849989139,None,1,243.5926296999678,None,,,,,,,,,,,,1,001,2026-02-24_09h12.39.288,n-back-testing,2020.1.3,60.21118470511326,
3,0.2,0.2,None,,,,,0,37,37,37,,,,,,,,,,,245.59269810002297,None,245.59269810002297,246.5927856999915,246.57586869993247,247.5757945999503,None,1,245.59269810002297,None,,,,,,,,,,,,1,001,2026-02-24_09h12.39.288,n-back-testing,2020.1.3,60.21118470511326,
8,0,-0.2,None,,,,,0,38,38,38,,,,,,,,,,,247.59255369985476,None,247.59255369985476,248.59176260000095,248.5762157998979,249.5755111000035,None,1,247.59255369985476,None,,,,,,,,,,,,1,001,2026-02-24_09h12.39.288,n-back-testing,2020.1.3,60.21118470511326,
3,0.2,0.2,space,,,,,0,39,39,39,,,,,,,,,,,249.59242410003208,None,249.59242410003208,250.59215889987536,250.57606659992598,251.57507959986106,space,1,249.59242410003208,None,0.8574278000742197,,,,,,,,,,,1,001,2026-02-24_09h12.39.288,n-back-testing,2020.1.3,60.21118470511326,
1,-0.2,0.2,None,,,,,0,40,40,40,,,,,,,,,,,251.59211359987967,None,251.59211359987967,252.59220519987866,252.5758121998515,253.57569389999844,None,1,251.59211359987967,None,,,,,,,,,,,,1,001,2026-02-24_09h12.39.288,n-back-testing,2020.1.3,60.21118470511326,
4,-0.2,0,None,,,,,0,41,41,41,,,,,,,,,,,253.59253180003725,None,253.59253180003725,254.59272679989226,254.5753723999951,255.57542250002734,None,1,253.59253180003725,None,,,,,,,,,,,,1,001,2026-02-24_09h12.39.288,n-back-testing,2020.1.3,60.21118470511326,
2,0,0.2,None,,,,,0,42,42,42,,,,,,,,,,,255.59174179984257,None,255.59174179984257,256.5922608000692,256.5754871999379,257.57493450003676,None,1,255.59174179984257,None,,,,,,,,,,,,1,001,2026-02-24_09h12.39.288,n-back-testing,2020.1.3,60.21118470511326,
4,-0.2,0,space,,,,,0,43,43,43,,,,,,,,,,,257.59141919994727,None,257.59141919994727,258.59247329994105,258.57522709993646,259.57506459997967,space,1,257.59141919994727,None,1.1270095999352634,,,,,,,,,,,1,001,2026-02-24_09h12.39.288,n-back-testing,2020.1.3,60.21118470511326,
8,0,-0.2,None,,,,,0,44,44,44,,,,,,,,,,,259.5919753999915,None,259.5919753999915,260.59172299993224,260.57531460002065,261.5753188000526,None,1,259.5919753999915,None,,,,,,,,,,,,1,001,2026-02-24_09h12.39.288,n-back-testing,2020.1.3,60.21118470511326,
5,0,0,None,,,,,0,45,45,45,,,,,,,,,,,261.5920813998673,None,261.5920813998673,262.5918666999787,262.575295599876,263.57496759993955,None,1,261.5920813998673,None,,,,,,,,,,,,1,001,2026-02-24_09h12.39.288,n-back-testing,2020.1.3,60.21118470511326,
1,-0.2,0.2,None,,,,,0,46,46,46,,,,,,,,,,,263.5916160000488,None,263.5916160000488,264.59197139996104,264.5750364998821,265.5743746999651,None,1,263.5916160000488,None,,,,,,,,,,,,1,001,2026-02-24_09h12.39.288,n-back-testing,2020.1.3,60.21118470511326,
5,0,0,space,,,,,0,47,47,47,,,,,,,,,,,265.59122049994767,None,265.59122049994767,266.5909199998714,266.5741816998925,267.57404419989325,space,1,265.59122049994767,None,0.7348478999920189,,,,,,,,,,,1,001,2026-02-24_09h12.39.288,n-back-testing,2020.1.3,60.21118470511326,
3,0.2,0.2,None,,,,,0,48,48,48,,,,,,,,,,,267.5908294999972,None,267.5908294999972,268.59144310001284,268.5575790000148,269.55725959991105,None,1,267.5908294999972,None,,,,,,,,,,,,1,001,2026-02-24_09h12.39.288,n-back-testing,2020.1.3,60.21118470511326,
6,0.2,0,None,,,,,0,49,49,49,,,,,,,,,,,269.5906873999629,None,269.5906873999629,270.59167180000804,270.57447059988044,271.5748771999497,None,1,269.5906873999629,None,,,,,,,,,,,,1,001,2026-02-24_09h12.39.288,n-back-testing,2020.1.3,60.21118470511326,
1,-0.2,0.2,None,,,,,0,50,50,50,,,,,,,,,,,271.59077809983864,None,271.59077809983864,272.5910346999299,272.57499039988033,273.574440700002,None,1,271.59077809983864,None,,,,,,,,,,,,1,001,2026-02-24_09h12.39.288,n-back-testing,2020.1.3,60.21118470511326,
3,0.2,0.2,None,,,,,0,51,51,51,,,,,,,,,,,273.59162469999865,None,273.59162469999865,274.59084949991666,274.57417279994115,275.57468139985576,space,0,273.59162469999865,None,1.2297935001552105,,,,,,,,,,,1,001,2026-02-24_09h12.39.288,n-back-testing,2020.1.3,60.21118470511326,
1,-0.2,0.2,space,,,,,0,52,52,52,,,,,,,,,,,275.59135510004126,None,275.59135510004126,276.5905649999622,276.57375840004534,277.57479900005274,space,1,275.59135510004126,None,1.7903243000619113,,,,,,,,,,,1,001,2026-02-24_09h12.39.288,n-back-testing,2020.1.3,60.21118470511326,
2,0,0.2,None,,,,,0,53,53,53,,,,,,,,,,,277.59112789994106,None,277.59112789994106,278.5915540999267,278.5740525999572,279.5746210999787,None,1,277.59112789994106,None,,,,,,,,,,,,1,001,2026-02-24_09h12.39.288,n-back-testing,2020.1.3,60.21118470511326,
1,-0.2,0.2,space,,,,,0,54,54,54,,,,,,,,,,,279.59116899990477,None,279.59116899990477,280.5910443998873,280.5747141998727,281.57423799997196,None,0,279.59116899990477,None,,,,,,,,,,,,1,001,2026-02-24_09h12.39.288,n-back-testing,2020.1.3,60.21118470511326,
1,-0.2,0.2,None,,,,,0,55,55,55,,,,,,,,,,,281.5917529000435,None,281.5917529000435,282.5905807998497,282.5743591999635,283.5745844000485,space,0,281.5917529000435,None,0.71473199990578,,,,,,,,,,,1,001,2026-02-24_09h12.39.288,n-back-testing,2020.1.3,60.21118470511326,
7,-0.2,-0.2,None,,,,,0,56,56,56,,,,,,,,,,,283.5903016999364,None,283.5903016999364,284.59076259983703,284.57399820000865,285.5743420999497,None,1,283.5903016999364,None,,,,,,,,,,,,1,001,2026-02-24_09h12.39.288,n-back-testing,2020.1.3,60.21118470511326,
2,0,0.2,None,,,,,0,57,57,57,,,,,,,,,,,285.59106560004875,None,285.59106560004875,286.5901226999704,286.5740981998388,287.57402689987794,None,1,285.59106560004875,None,,,,,,,,,,,,1,001,2026-02-24_09h12.39.288,n-back-testing,2020.1.3,60.21118470511326,
7,-0.2,-0.2,space,,,,,0,58,58,58,,,,,,,,,,,287.5906459998805,None,287.5906459998805,288.5906833000481,288.5740988999605,289.5735063999891,space,1,287.5906459998805,None,1.4679081998765469,,,,,,,,,,,1,001,2026-02-24_09h12.39.288,n-back-testing,2020.1.3,60.21118470511326,
6,0.2,0,None,,,,,0,59,59,59,,,,,,,,,,,289.5907703000121,None,289.5907703000121,290.5909945999738,290.57385100005195,291.57369549991563,None,1,289.5907703000121,None,,,,,,,,,,,,1,001,2026-02-24_09h12.39.288,n-back-testing,2020.1.3,60.21118470511326,
4,-0.2,0,None,,,,,,,,,0,0,0,0,,,,,,,313.72400589985773,None,313.72400589985773,314.73953959997743,314.72254349989817,None,None,1,313.72400589985773,None,,,,,,291.59074809984304,None,312.6729307998903,None,,,1,001,2026-02-24_09h12.39.288,n-back-testing,2020.1.3,60.21118470511326,
2,0,0.2,None,,,,,,,,,0,1,1,1,,,,,,,315.6895620999858,None,315.6895620999858,316.6887948999647,316.67268079984933,317.67294029984623,None,1,315.6895620999858,None,,,,,,,,,,,,1,001,2026-02-24_09h12.39.288,n-back-testing,2020.1.3,60.21118470511326,
9,0.2,-0.2,None,,,,,,,,,0,2,2,2,,,,,,,317.6894123000093,None,317.6894123000093,318.68950939993374,318.6728658999782,319.67243449995294,None,1,317.6894123000093,None,,,,,,,,,,,,1,001,2026-02-24_09h12.39.288,n-back-testing,2020.1.3,60.21118470511326,
4,-0.2,0,space,,,,,,,,,0,3,3,3,,,,,,,319.6890503000468,None,319.6890503000468,320.6889408000279,320.67288209986873,321.6728682999965,space,1,319.6890503000468,None,1.311606700066477,,,,,,,,,,,1,001,2026-02-24_09h12.39.288,n-back-testing,2020.1.3,60.21118470511326,
3,0.2,0.2,None,,,,,,,,,0,4,4,4,,,,,,,321.6888290999923,None,321.6888290999923,322.6892480000388,322.6721989000216,323.6728022999596,None,1,321.6888290999923,None,,,,,,,,,,,,1,001,2026-02-24_09h12.39.288,n-back-testing,2020.1.3,60.21118470511326,
9,0.2,-0.2,space,,,,,,,,,0,5,5,5,,,,,,,323.6890775000211,None,323.6890775000211,324.68901390000246,324.67236869991757,325.67328180000186,None,0,323.6890775000211,None,,,,,,,,,,,,1,001,2026-02-24_09h12.39.288,n-back-testing,2020.1.3,60.21118470511326,
1,-0.2,0.2,None,,,,,,,,,0,6,6,6,,,,,,,325.6887419000268,None,325.6887419000268,326.68902789987624,326.67270589992404,327.6723527999129,None,1,325.6887419000268,None,,,,,,,,,,,,1,001,2026-02-24_09h12.39.288,n-back-testing,2020.1.3,60.21118470511326,
1,-0.2,0.2,None,,,,,,,,,0,7,7,7,,,,,,,327.6891687999014,None,327.6891687999014,328.68823540001176,328.6715046998579,329.6726885000244,None,1,327.6891687999014,None,,,,,,,,,,,,1,001,2026-02-24_09h12.39.288,n-back-testing,2020.1.3,60.21118470511326,
6,0.2,0,None,,,,,,,,,0,8,8,8,,,,,,,329.6889042998664,None,329.6889042998664,330.68921049986966,330.6724898999091,331.6720620999113,space,0,329.6889042998664,None,1.348208799958229,,,,,,,,,,,1,001,2026-02-24_09h12.39.288,n-back-testing,2020.1.3,60.21118470511326,
1,-0.2,0.2,space,,,,,,,,,0,9,9,9,,,,,,,331.6890175999142,None,331.6890175999142,332.68863620003685,332.6716509000398,333.6716543000657,space,1,331.6890175999142,None,1.8386354001704603,,,,,,,,,,,1,001,2026-02-24_09h12.39.288,n-back-testing,2020.1.3,60.21118470511326,
5,0,0,None,,,,,,,,,0,10,10,10,,,,,,,333.6882949999999,None,333.6882949999999,334.6887963998597,334.67221800005063,335.6723068000283,None,1,333.6882949999999,None,,,,,,,,,,,,1,001,2026-02-24_09h12.39.288,n-back-testing,2020.1.3,60.21118470511326,
6,0.2,0,space,,,,,,,,,0,11,11,11,,,,,,,335.68895390001126,None,335.68895390001126,336.68806279986165,336.67249109991826,337.6716091998387,None,0,335.68895390001126,None,,,,,,,,,,,,1,001,2026-02-24_09h12.39.288,n-back-testing,2020.1.3,60.21118470511326,
3,0.2,0.2,None,,,,,,,,,0,12,12,12,,,,,,,337.68864959990606,None,337.68864959990606,338.6895411000587,338.6721280000638,339.6721934999805,None,1,337.68864959990606,None,,,,,,,,,,,,1,001,2026-02-24_09h12.39.288,n-back-testing,2020.1.3,60.21118470511326,
1,-0.2,0.2,None,,,,,,,,,0,13,13,13,,,,,,,339.68812049995176,None,339.68812049995176,340.6881941999309,340.6729009998962,None,space,0,339.68812049995176,None,1.9477669999469072,,,,,,,,,,,1,001,2026-02-24_09h12.39.288,n-back-testing,2020.1.3,60.21118470511326,
7,-0.2,-0.2,None,,,,,,,,,0,14,14,14,,,,,,,341.6880866000429,None,341.6880866000429,342.6878976000007,342.67173069994897,343.67205010005273,None,1,341.6880866000429,None,,,,,,,,,,,,1,001,2026-02-24_09h12.39.288,n-back-testing,2020.1.3,60.21118470511326,
9,0.2,-0.2,None,,,,,,,,,0,15,15,15,,,,,,,343.6882118000649,None,343.6882118000649,344.6883821999654,344.67137599992566,345.67189319990575,None,1,343.6882118000649,None,,,,,,,,,,,,1,001,2026-02-24_09h12.39.288,n-back-testing,2020.1.3,60.21118470511326,
1,-0.2,0.2,space,,,,,,,,,0,16,16,16,,,,,,,345.6883131999057,None,345.6883131999057,346.6882336998824,346.67154469992965,347.67110949987546,space,1,345.6883131999057,None,1.7534338000696152,,,,,,,,,,,1,001,2026-02-24_09h12.39.288,n-back-testing,2020.1.3,60.21118470511326,
3,0.2,0.2,None,,,,,,,,,0,17,17,17,,,,,,,347.6882537000347,None,347.6882537000347,348.6882171998732,348.6713696999941,349.6715442999266,None,1,347.6882537000347,None,,,,,,,,,,,,1,001,2026-02-24_09h12.39.288,n-back-testing,2020.1.3,60.21118470511326,
7,-0.2,-0.2,None,,,,,,,,,0,18,18,18,,,,,,,349.6879112999886,None,349.6879112999886,350.6876041998621,350.670902099926,351.6708775998559,None,1,349.6879112999886,None,,,,,,,,,,,,1,001,2026-02-24_09h12.39.288,n-back-testing,2020.1.3,60.21118470511326,
5,0,0,None,,,,,,,,,0,19,19,19,,,,,,,351.6880768998526,None,351.6880768998526,352.68785590003245,352.67128630005755,353.6718099999707,None,1,351.6880768998526,None,,,,,,,,,,,,1,001,2026-02-24_09h12.39.288,n-back-testing,2020.1.3,60.21118470511326,
3,0.2,0.2,space,,,,,,,,,0,20,20,20,,,,,,,353.6874549998902,None,353.6874549998902,354.68822610005736,354.67136129993014,355.6711989999749,space,1,353.6874549998902,None,1.422865599859506,,,,,,,,,,,1,001,2026-02-24_09h12.39.288,n-back-testing,2020.1.3,60.21118470511326,
8,0,-0.2,None,,,,,,,,,0,21,21,21,,,,,,,355.6884162998758,None,355.6884162998758,356.6873967999127,356.6710991000291,357.67079099989496,None,1,355.6884162998758,None,,,,,,,,,,,,1,001,2026-02-24_09h12.39.288,n-back-testing,2020.1.3,60.21118470511326,
7,-0.2,-0.2,None,,,,,,,,,0,22,22,22,,,,,,,357.68800999992527,None,357.68800999992527,358.68782559991814,358.67107130005024,359.67115020006895,space,0,357.68800999992527,None,1.6517133999150246,,,,,,,,,,,1,001,2026-02-24_09h12.39.288,n-back-testing,2020.1.3,60.21118470511326,
4,-0.2,0,None,,,,,,,,,0,23,23,23,,,,,,,359.6871596998535,None,359.6871596998535,360.6876441000495,360.67111909994856,361.67090049991384,None,1,359.6871596998535,None,,,,,,,,,,,,1,001,2026-02-24_09h12.39.288,n-back-testing,2020.1.3,60.21118470511326,
8,0,-0.2,space,,,,,,,,,0,24,24,24,,,,,,,361.6877689999528,None,361.6877689999528,362.6875731998589,362.6708332998678,363.67115089995787,None,0,361.6877689999528,None,,,,,,,,,,,,1,001,2026-02-24_09h12.39.288,n-back-testing,2020.1.3,60.21118470511326,
5,0,0,None,,,,,,,,,0,25,25,25,,,,,,,363.6873601998668,None,363.6873601998668,364.68711850000545,364.6709817000665,365.67100870003924,space,0,363.6873601998668,None,1.2101179999299347,,,,,,,,,,,1,001,2026-02-24_09h12.39.288,n-back-testing,2020.1.3,60.21118470511326,
2,0,0.2,None,,,,,,,,,0,26,26,26,,,,,,,365.6876836998854,None,365.6876836998854,366.68752779997885,366.67047440004535,367.6704364998732,None,1,365.6876836998854,None,,,,,,,,,,,,1,001,2026-02-24_09h12.39.288,n-back-testing,2020.1.3,60.21118470511326,
6,0.2,0,None,,,,,,,,,0,27,27,27,,,,,,,367.6874509998597,None,367.6874509998597,368.6870919999201,368.6707804999314,369.6708720000461,None,1,367.6874509998597,None,,,,,,,,,,,,1,001,2026-02-24_09h12.39.288,n-back-testing,2020.1.3,60.21118470511326,
5,0,0,space,,,,,,,,,0,28,28,28,,,,,,,369.68703519995324,None,369.68703519995324,370.68724110000767,370.6707977000624,371.67055659997277,space,1,369.68703519995324,None,1.3960673999972641,,,,,,,,,,,1,001,2026-02-24_09h12.39.288,n-back-testing,2020.1.3,60.21118470511326,
2,0,0.2,space,,,,,,,,,0,29,29,29,,,,,,,371.6870599000249,None,371.6870599000249,372.6868664000649,372.6705608998891,373.67067359993234,space,1,371.6870599000249,None,1.055217299843207,,,,,,,,,,,1,001,2026-02-24_09h12.39.288,n-back-testing,2020.1.3,60.21118470511326,
5,0,0,None,,,,,,,,,0,30,30,30,,,,,,,373.6868771999143,None,373.6868771999143,374.6878297000658,374.670545599889,375.670239900006,space,0,373.6868771999143,None,1.2816898000892252,,,,,,,,,,,1,001,2026-02-24_09h12.39.288,n-back-testing,2020.1.3,60.21118470511326,
2,0,0.2,None,,,,,,,,,0,31,31,31,,,,,,,375.68702039984055,None,375.68702039984055,376.68644530000165,376.6709675998427,377.6701158999931,space,0,375.68702039984055,None,1.496802099980414,,,,,,,,,,,1,001,2026-02-24_09h12.39.288,n-back-testing,2020.1.3,60.21118470511326,
9,0.2,-0.2,None,,,,,,,,,0,32,32,32,,,,,,,377.6867293000687,None,377.6867293000687,378.68694769986905,378.67038429994136,379.6703522999305,None,1,377.6867293000687,None,,,,,,,,,,,,1,001,2026-02-24_09h12.39.288,n-back-testing,2020.1.3,60.21118470511326,
6,0.2,0,None,,,,,,,,,0,33,33,33,,,,,,,379.68752370006405,None,379.68752370006405,380.68681290000677,380.6700875000097,381.67017689999193,None,1,379.68752370006405,None,,,,,,,,,,,,1,001,2026-02-24_09h12.39.288,n-back-testing,2020.1.3,60.21118470511326,
3,0.2,0.2,None,,,,,,,,,0,34,34,34,,,,,,,381.6867223000154,None,381.6867223000154,382.6866816000547,382.67030650004745,383.6700134999119,None,1,381.6867223000154,None,,,,,,,,,,,,1,001,2026-02-24_09h12.39.288,n-back-testing,2020.1.3,60.21118470511326,
9,0.2,-0.2,space,,,,,,,,,0,35,35,35,,,,,,,383.6866838999558,None,383.6866838999558,384.68626959994435,384.6697124999482,385.6699776998721,space,1,383.6866838999558,None,0.8800814999267459,,,,,,,,,,,1,001,2026-02-24_09h12.39.288,n-back-testing,2020.1.3,60.21118470511326,
7,-0.2,-0.2,None,,,,,,,,,0,36,36,36,,,,,,,385.68664629990235,None,385.68664629990235,386.68663779995404,386.6701130999718,387.66932219988666,None,1,385.68664629990235,None,,,,,,,,,,,,1,001,2026-02-24_09h12.39.288,n-back-testing,2020.1.3,60.21118470511326,
5,0,0,None,,,,,,,,,0,37,37,37,,,,,,,387.68596899998374,None,387.68596899998374,388.68632879992947,388.6693567999173,389.6700778999366,None,1,387.68596899998374,None,,,,,,,,,,,,1,001,2026-02-24_09h12.39.288,n-back-testing,2020.1.3,60.21118470511326,
1,-0.2,0.2,None,,,,,,,,,0,38,38,38,,,,,,,389.68614079989493,None,389.68614079989493,390.68646600004286,390.6698227999732,391.66971499985084,None,1,389.68614079989493,None,,,,,,,,,,,,1,001,2026-02-24_09h12.39.288,n-back-testing,2020.1.3,60.21118470511326,
7,-0.2,-0.2,None,,,,,,,,,0,39,39,39,,,,,,,391.68612680002116,None,391.68612680002116,392.68603829992935,392.6697336998768,393.66985659999773,space,0,391.68612680002116,None,1.2409657000098377,,,,,,,,,,,1,001,2026-02-24_09h12.39.288,n-back-testing,2020.1.3,60.21118470511326,
5,0,0,space,,,,,,,,,0,40,40,40,,,,,,,393.6855855998583,None,393.6855855998583,394.68562539992854,394.6698147000279,395.6695059998892,space,1,393.6855855998583,None,0.7615376999601722,,,,,,,,,,,1,001,2026-02-24_09h12.39.288,n-back-testing,2020.1.3,60.21118470511326,
7,-0.2,-0.2,None,,,,,,,,,0,41,41,41,,,,,,,395.6867114000488,None,395.6867114000488,396.6861904999241,396.6695803999901,397.669101000065,None,1,395.6867114000488,None,,,,,,,,,,,,1,001,2026-02-24_09h12.39.288,n-back-testing,2020.1.3,60.21118470511326,
3,0.2,0.2,None,,,,,,,,,0,42,42,42,,,,,,,397.685909899883,None,397.685909899883,398.6861433000304,398.66964309988543,399.66868710005656,None,1,397.685909899883,None,,,,,,,,,,,,1,001,2026-02-24_09h12.39.288,n-back-testing,2020.1.3,60.21118470511326,
8,0,-0.2,None,,,,,,,,,0,43,43,43,,,,,,,399.6865445000585,None,399.6865445000585,400.685493899975,400.6695141000673,401.6690721998457,None,1,399.6865445000585,None,,,,,,,,,,,,1,001,2026-02-24_09h12.39.288,n-back-testing,2020.1.3,60.21118470511326,
7,-0.2,-0.2,space,,,,,,,,,0,44,44,44,,,,,,,401.68578579998575,None,401.68578579998575,402.68540570000187,402.66938510001637,403.6692579998635,space,1,401.68578579998575,None,0.7852414001245052,,,,,,,,,,,1,001,2026-02-24_09h12.39.288,n-back-testing,2020.1.3,60.21118470511326,
9,0.2,-0.2,None,,,,,,,,,0,45,45,45,,,,,,,403.68596689985134,None,403.68596689985134,404.685946600046,404.6693289000541,405.66923610004596,None,1,403.68596689985134,None,,,,,,,,,,,,1,001,2026-02-24_09h12.39.288,n-back-testing,2020.1.3,60.21118470511326,
9,0.2,-0.2,None,,,,,,,,,0,46,46,46,,,,,,,405.68585919984616,None,405.68585919984616,406.6860229000449,406.66913910000585,407.66918540000916,None,1,405.68585919984616,None,,,,,,,,,,,,1,001,2026-02-24_09h12.39.288,n-back-testing,2020.1.3,60.21118470511326,
3,0.2,0.2,None,,,,,,,,,0,47,47,47,,,,,,,407.68510690005496,None,407.68510690005496,408.68593559996225,408.6690261999611,409.66908270004205,None,1,407.68510690005496,None,,,,,,,,,,,,1,001,2026-02-24_09h12.39.288,n-back-testing,2020.1.3,60.21118470511326,
1,-0.2,0.2,None,,,,,,,,,0,48,48,48,,,,,,,409.68565210001543,None,409.68565210001543,410.68510919995606,410.6684578000568,411.66877690004185,space,0,409.68565210001543,None,1.8086974998004735,,,,,,,,,,,1,001,2026-02-24_09h12.39.288,n-back-testing,2020.1.3,60.21118470511326,
5,0,0,None,,,,,,,,,0,49,49,49,,,,,,,411.685358799994,None,411.685358799994,412.6854749000631,412.66918109986,413.6689561000094,space,0,411.685358799994,None,0.3865698999725282,,,,,,,,,,,1,001,2026-02-24_09h12.39.288,n-back-testing,2020.1.3,60.21118470511326,
3,0.2,0.2,space,,,,,,,,,0,50,50,50,,,,,,,413.68561169994064,None,413.68561169994064,414.68523780000396,414.6687093998771,415.6686292998493,None,0,413.68561169994064,None,,,,,,,,,,,,1,001,2026-02-24_09h12.39.288,n-back-testing,2020.1.3,60.21118470511326,
4,-0.2,0,None,,,,,,,,,0,51,51,51,,,,,,,415.68534799991176,None,415.68534799991176,416.68525279988535,416.66834039986134,417.6685329999309,None,1,415.68534799991176,None,,,,,,,,,,,,1,001,2026-02-24_09h12.39.288,n-back-testing,2020.1.3,60.21118470511326,
7,-0.2,-0.2,None,,,,,,,,,0,52,52,52,,,,,,,417.6848867998924,None,417.6848867998924,418.6850497999694,418.66877710004337,419.66794399986975,None,1,417.6848867998924,None,,,,,,,,,,,,1,001,2026-02-24_09h12.39.288,n-back-testing,2020.1.3,60.21118470511326,
4,-0.2,0,None,,,,,,,,,0,53,53,53,,,,,,,419.68494060006924,None,419.68494060006924,420.68511509988457,420.66838290006854,421.6684367998969,space,0,419.68494060006924,None,0.9732635000254959,,,,,,,,,,,1,001,2026-02-24_09h12.39.288,n-back-testing,2020.1.3,60.21118470511326,
4,-0.2,0,space,,,,,,,,,0,54,54,54,,,,,,,421.6851431999821,None,421.6851431999821,422.68518629996106,422.66844179993495,423.6686022998765,space,1,421.6851431999821,None,0.8032246001530439,,,,,,,,,,,1,001,2026-02-24_09h12.39.288,n-back-testing,2020.1.3,60.21118470511326,
5,0,0,None,,,,,,,,,0,55,55,55,,,,,,,423.68482719990425,None,423.68482719990425,424.6848969999701,424.6682261999231,425.66830959985964,space,0,423.68482719990425,None,1.0882969999220222,,,,,,,,,,,1,001,2026-02-24_09h12.39.288,n-back-testing,2020.1.3,60.21118470511326,
6,0.2,0,None,,,,,,,,,0,56,56,56,,,,,,,425.6847824999131,None,425.6847824999131,426.6850735999178,426.6682012998499,427.6683120999951,None,1,425.6847824999131,None,,,,,,,,,,,,1,001,2026-02-24_09h12.39.288,n-back-testing,2020.1.3,60.21118470511326,
2,0,0.2,None,,,,,,,,,0,57,57,57,,,,,,,427.68471110006794,None,427.68471110006794,428.68490720004775,428.6683465000242,429.66826800000854,None,1,427.68471110006794,None,,,,,,,,,,,,1,001,2026-02-24_09h12.39.288,n-back-testing,2020.1.3,60.21118470511326,
7,-0.2,-0.2,None,,,,,,,,,0,58,58,58,,,,,,,429.6847198000178,None,429.6847198000178,430.6846249999944,430.66821669996716,431.667930399999,None,1,429.6847198000178,None,,,,,,,,,,,,1,001,2026-02-24_09h12.39.288,n-back-testing,2020.1.3,60.21118470511326,
6,0.2,0,space,,,,,,,,,0,59,59,59,,,,,,,431.6845478999894,None,431.6845478999894,432.6839468998369,432.6673365999013,433.66753549990244,space,1,431.6845478999894,None,0.37765490007586777,,,,,,,,,,,1,001,2026-02-24_09h12.39.288,n-back-testing,2020.1.3,60.21118470511326,
,,,,,,,,,,,,,,,,,,,,,,,,,,,,,,,,,,,,,,,,,433.6843642999884,None,,,,,,,
