square,loc1,loc2,corrAns,trials1.thisRepN,trials1.thisTrialN,trials1.thisN,trials1.thisIndex,trials2.thisRepN,trials2.thisTrialN,trials2.thisN,trials2.thisIndex,trials.thisRepN,trials.thisTrialN,trials.thisN,trials.thisIndex,instr1.started,instr1.stopped,fix1.started,fix1.stopped,trialGrid.started,trialGrid.stopped,trialSquare.started,trialSquare.stopped,trialFix.started,trialFix.stopped,trialResp.keys,trialResp.corr,trialResp.started,trialResp.stopped,trialResp.rt,instr2.started,instr2.stopped,fix2.started,fix2.stopped,instr3.started,instr3.stopped,fix3.started,fix3.stopped,thanks.started,thanks.stopped,participant,session,date,expName,psychopyVersion,frameRate,
6,0.2,0.0,None,0,0,0,0,,,,,,,,,14.473257099976763,None,19.114032099954784,None,20.21508409990929,None,20.21508409990929,21.213538399897516,21.19819639995694,None,None,1,20.21508409990929,None,,,,,,,,,,,,a,001,2020_Jun_07_1430,n-back-testing,2020.1.3,59.95088822132636,
6,0.2,0.0,space,0,1,1,1,,,,,,,,,,,,,22.13231180002913,None,22.13231180002913,23.146239599911496,23.113150000106543,24.113003799924627,space,1,22.13231180002913,None,0.6531827999278903,,,,,,,,,,,a,001,2020_Jun_07_1430,n-back-testing,2020.1.3,59.95088822132636,
2,0.0,0.2,None,0,2,2,2,,,,,,,,,,,,,24.13295749993995,None,24.13295749993995,25.14744980004616,25.114489699946716,26.112518900074065,None,1,24.13295749993995,None,,,,,,,,,,,,a,001,2020_Jun_07_1430,n-back-testing,2020.1.3,59.95088822132636,
9,0.2,-0.2,None,0,3,3,3,,,,,,,,,,,,,26.13212059997022,None,26.13212059997022,27.14533259999007,27.112047499977052,28.11180440010503,None,1,26.13212059997022,None,,,,,,,,,,,,a,001,2020_Jun_07_1430,n-back-testing,2020.1.3,59.95088822132636,
9,0.2,-0.2,space,0,4,4,4,,,,,,,,,,,,,28.13240489992313,None,28.13240489992313,29.14509080001153,29.112304599955678,30.111778599908575,space,1,28.13240489992313,None,0.5330689998809248,,,,,,,,,,,a,001,2020_Jun_07_1430,n-back-testing,2020.1.3,59.95088822132636,
6,0.2,0.0,None,0,5,5,5,,,,,,,,,,,,,30.129957400029525,None,30.129957400029525,31.146803200012073,31.112341200001538,32.11091440008022,None,1,30.129957400029525,None,,,,,,,,,,,,a,001,2020_Jun_07_1430,n-back-testing,2020.1.3,59.95088822132636,
4,-0.2,0.0,None,0,6,6,6,,,,,,,,,,,,,32.13314429996535,None,32.13314429996535,33.14603770012036,33.11206559999846,34.112435000017285,None,1,32.13314429996535,None,,,,,,,,,,,,a,001,2020_Jun_07_1430,n-back-testing,2020.1.3,59.95088822132636,
3,0.2,0.2,None,0,7,7,7,,,,,,,,,,,,,34.14221419999376,None,34.14221419999376,35.14342029998079,35.11154139996506,36.109798500081524,None,1,34.14221419999376,None,,,,,,,,,,,,a,001,2020_Jun_07_1430,n-back-testing,2020.1.3,59.95088822132636,
3,0.2,0.2,space,0,8,8,8,,,,,,,,,,,,,36.12828229996376,None,36.12828229996376,37.128753799945116,37.11142150009982,38.10942029999569,space,1,36.12828229996376,None,0.39327339990995824,,,,,,,,,,,a,001,2020_Jun_07_1430,n-back-testing,2020.1.3,59.95088822132636,
8,0.0,-0.2,None,0,9,9,9,,,,,,,,,,,,,38.12837910000235,None,38.12837910000235,39.12993979989551,39.11307470011525,None,None,1,38.12837910000235,None,,,,,,,,,,,,a,001,2020_Jun_07_1430,n-back-testing,2020.1.3,59.95088822132636,
1,-0.2,0.2,None,0,10,10,10,,,,,,,,,,,,,40.1283839000389,None,40.1283839000389,41.128529800102115,41.111595399910584,42.109393700025976,None,1,40.1283839000389,None,,,,,,,,,,,,a,001,2020_Jun_07_1430,n-back-testing,2020.1.3,59.95088822132636,
2,0.0,0.2,None,0,11,11,11,,,,,,,,,,,,,42.12837389996275,None,42.12837389996275,43.142033299896866,43.12458680011332,None,None,1,42.12837389996275,None,,,,,,,,,,,,a,001,2020_Jun_07_1430,n-back-testing,2020.1.3,59.95088822132636,
4,-0.2,0.0,None,0,12,12,12,,,,,,,,,,,,,44.12949840002693,None,44.12949840002693,45.14211730007082,45.10929500008933,46.10776140005328,None,1,44.12949840002693,None,,,,,,,,,,,,a,001,2020_Jun_07_1430,n-back-testing,2020.1.3,59.95088822132636,
4,-0.2,0.0,space,0,13,13,13,,,,,,,,,,,,,46.12668449990451,None,46.12668449990451,47.12790479999967,47.11128959991038,48.10839470010251,space,1,46.12668449990451,None,0.4347626999951899,,,,,,,,,,,a,001,2020_Jun_07_1430,n-back-testing,2020.1.3,59.95088822132636,
8,0.0,-0.2,None,0,14,14,14,,,,,,,,,,,,,48.12830689991824,None,48.12830689991824,49.1423061999958,49.10929369996302,50.10728850006126,None,1,48.12830689991824,None,,,,,,,,,,,,a,001,2020_Jun_07_1430,n-back-testing,2020.1.3,59.95088822132636,
5,0.0,0.0,None,0,15,15,15,,,,,,,,,,,,,50.126886799931526,None,50.126886799931526,51.14108130009845,51.108305000001565,52.10786959994584,None,1,50.126886799931526,None,,,,,,,,,,,,a,001,2020_Jun_07_1430,n-back-testing,2020.1.3,59.95088822132636,
5,0.0,0.0,space,0,16,16,16,,,,,,,,,,,,,52.12645879993215,None,52.12645879993215,53.14046279992908,53.10837460006587,54.10651719989255,space,1,52.12645879993215,None,0.5233859999570996,,,,,,,,,,,a,001,2020_Jun_07_1430,n-back-testing,2020.1.3,59.95088822132636,
1,-0.2,0.2,None,0,17,17,17,,,,,,,,,,,,,54.128239900106564,None,54.128239900106564,55.14182629995048,55.10836760001257,56.10615970008075,None,1,54.128239900106564,None,,,,,,,,,,,,a,001,2020_Jun_07_1430,n-back-testing,2020.1.3,59.95088822132636,
3,0.2,0.2,None,0,18,18,18,,,,,,,,,,,,,56.12528909998946,None,56.12528909998946,57.12565180007368,57.10865520010702,58.10653269989416,None,1,56.12528909998946,None,,,,,,,,,,,,a,001,2020_Jun_07_1430,n-back-testing,2020.1.3,59.95088822132636,
6,0.2,0.0,None,0,19,19,19,,,,,,,,,,,,,58.126759300008416,None,58.126759300008416,59.14065820001997,59.107763200066984,None,None,1,58.126759300008416,None,,,,,,,,,,,,a,001,2020_Jun_07_1430,n-back-testing,2020.1.3,59.95088822132636,
1,-0.2,0.2,None,0,20,20,20,,,,,,,,,,,,,60.12594010005705,None,60.12594010005705,61.137148699956015,61.12069089990109,None,None,1,60.12594010005705,None,,,,,,,,,,,,a,001,2020_Jun_07_1430,n-back-testing,2020.1.3,59.95088822132636,
1,-0.2,0.2,space,0,21,21,21,,,,,,,,,,,,,62.12604529992677,None,62.12604529992677,63.1384948999621,63.106193700106815,None,space,1,62.12604529992677,None,0.4359987999778241,,,,,,,,,,,a,001,2020_Jun_07_1430,n-back-testing,2020.1.3,59.95088822132636,
1,-0.2,0.2,space,0,22,22,22,,,,,,,,,,,,,64.12296760012396,None,64.12296760012396,65.1366546000354,65.12228529993445,None,space,1,64.12296760012396,None,0.7588377001229674,,,,,,,,,,,a,001,2020_Jun_07_1430,n-back-testing,2020.1.3,59.95088822132636,
3,0.2,0.2,None,0,23,23,23,,,,,,,,,,,,,66.1216072998941,None,66.1216072998941,67.12108690012246,67.10474759992212,68.1051143000368,None,1,66.1216072998941,None,,,,,,,,,,,,a,001,2020_Jun_07_1430,n-back-testing,2020.1.3,59.95088822132636,
2,0.0,0.2,None,0,24,24,24,,,,,,,,,,,,,68.12491529993713,None,68.12491529993713,69.15117840003222,69.10525320004672,70.10362439998426,None,1,68.12491529993713,None,,,,,,,,,,,,a,001,2020_Jun_07_1430,n-back-testing,2020.1.3,59.95088822132636,
1,-0.2,0.2,None,0,25,25,25,,,,,,,,,,,,,70.1207459999714,None,70.1207459999714,71.12105070007965,71.10528540005907,None,None,1,70.1207459999714,None,,,,,,,,,,,,a,001,2020_Jun_07_1430,n-back-testing,2020.1.3,59.95088822132636,
7,-0.2,-0.2,None,0,26,26,26,,,,,,,,,,,,,72.11877209995873,None,72.11877209995873,73.1184739000164,73.10318590002134,None,None,1,72.11877209995873,None,,,,,,,,,,,,a,001,2020_Jun_07_1430,n-back-testing,2020.1.3,59.95088822132636,
7,-0.2,-0.2,space,0,27,27,27,,,,,,,,,,,,,74.11838130000979,74.11838130000979,74.11838130000979,75.11842760001309,75.10292219999246,76.10315350000747,space,1,74.11838130000979,74.11838130000979,0.5073587000370026,,,,,,,,,,,a,001,2020_Jun_07_1430,n-back-testing,2020.1.3,59.95088822132636,
2,0.0,0.2,None,0,28,28,28,,,,,,,,,,,,,76.12145139998756,None,76.12145139998756,77.13552089990117,77.10255869990215,78.11664939997718,None,1,76.12145139998756,None,,,,,,,,,,,,a,001,2020_Jun_07_1430,n-back-testing,2020.1.3,59.95088822132636,
6,0.2,0.0,None,0,29,29,29,,,,,,,,,,,,,78.13476880011149,None,78.13476880011149,79.15070040011778,79.11686840001494,80.1163200000301,None,1,78.13476880011149,None,,,,,,,,,,,,a,001,2020_Jun_07_1430,n-back-testing,2020.1.3,59.95088822132636,
4,-0.2,0.0,None,0,30,30,30,,,,,,,,,,,,,80.13457540003583,None,80.13457540003583,81.14855889999308,81.11542960000224,82.11515560001135,None,1,80.13457540003583,None,,,,,,,,,,,,a,001,2020_Jun_07_1430,n-back-testing,2020.1.3,59.95088822132636,
4,-0.2,0.0,space,0,31,31,31,,,,,,,,,,,,,82.13406120007858,None,82.13406120007858,83.14809120004065,83.11500869994052,84.11444410006516,space,1,82.13406120007858,None,0.5802180001046509,,,,,,,,,,,a,001,2020_Jun_07_1430,n-back-testing,2020.1.3,59.95088822132636,
2,0.0,0.2,None,0,32,32,32,,,,,,,,,,,,,84.13240260002203,None,84.13240260002203,85.14755510003306,85.11405789991841,86.11422759993002,None,1,84.13240260002203,None,,,,,,,,,,,,a,001,2020_Jun_07_1430,n-back-testing,2020.1.3,59.95088822132636,
9,0.2,-0.2,None,0,33,33,33,,,,,,,,,,,,,86.13270749989897,None,86.13270749989897,87.1474884999916,87.11418700008653,88.11398979998194,None,1,86.13270749989897,None,,,,,,,,,,,,a,001,2020_Jun_07_1430,n-back-testing,2020.1.3,59.95088822132636,
9,0.2,-0.2,space,0,34,34,34,,,,,,,,,,,,,88.13332900009118,None,88.13332900009118,89.14650980010629,89.1137035000138,90.11301339999773,space,1,88.13332900009118,None,0.4282062998972833,,,,,,,,,,,a,001,2020_Jun_07_1430,n-back-testing,2020.1.3,59.95088822132636,
3,0.2,0.2,None,0,35,35,35,,,,,,,,,,,,,90.13247460010462,None,90.13247460010462,91.14627019991167,91.11273730010726,92.11280789994635,None,1,90.13247460010462,None,,,,,,,,,,,,a,001,2020_Jun_07_1430,n-back-testing,2020.1.3,59.95088822132636,
7,-0.2,-0.2,None,0,36,36,36,,,,,,,,,,,,,92.13231960008852,None,92.13231960008852,93.14581939997151,93.11261230008677,94.11203570012003,None,1,92.13231960008852,None,,,,,,,,,,,,a,001,2020_Jun_07_1430,n-back-testing,2020.1.3,59.95088822132636,
7,-0.2,-0.2,space,0,37,37,37,,,,,,,,,,,,,94.13173820008524,None,94.13173820008524,95.14498730003834,95.111891400069,96.11163030005991,space,1,94.13173820008524,None,0.534343000035733,,,,,,,,,,,a,001,2020_Jun_07_1430,n-back-testing,2020.1.3,59.95088822132636,
7,-0.2,-0.2,space,0,38,38,38,,,,,,,,,,,,,96.13010920002125,None,96.13010920002125,97.14518549991772,97.11213929997757,98.11136170011014,space,1,96.13010920002125,None,0.6641469998285174,,,,,,,,,,,a,001,2020_Jun_07_1430,n-back-testing,2020.1.3,59.95088822132636,
6,0.2,0.0,None,0,39,39,39,,,,,,,,,,,,,98.13127289991826,None,98.13127289991826,99.14550230000168,99.11344929994084,100.1111922999844,None,1,98.13127289991826,None,,,,,,,,,,,,a,001,2020_Jun_07_1430,n-back-testing,2020.1.3,59.95088822132636,
6,0.2,0.0,space,0,40,40,40,,,,,,,,,,,,,100.12948870006949,None,100.12948870006949,101.1450491999276,101.11193439993076,102.11177320010029,space,1,100.12948870006949,None,0.5201675000134856,,,,,,,,,,,a,001,2020_Jun_07_1430,n-back-testing,2020.1.3,59.95088822132636,
1,-0.2,0.2,None,0,41,41,41,,,,,,,,,,,,,102.14174290001392,None,102.14174290001392,103.14346810011193,103.11144370003603,104.1124660000205,None,1,102.14174290001392,None,,,,,,,,,,,,a,001,2020_Jun_07_1430,n-back-testing,2020.1.3,59.95088822132636,
5,0.0,0.0,None,0,42,42,42,,,,,,,,,,,,,104.13195209996775,None,104.13195209996775,105.14629750000313,105.11203960003331,106.10905710002407,None,1,104.13195209996775,None,,,,,,,,,,,,a,001,2020_Jun_07_1430,n-back-testing,2020.1.3,59.95088822132636,
3,0.2,0.2,None,0,43,43,43,,,,,,,,,,,,,106.12874469999224,None,106.12874469999224,107.14228969998658,107.11068570008501,108.10844719992019,None,1,106.12874469999224,None,,,,,,,,,,,,a,001,2020_Jun_07_1430,n-back-testing,2020.1.3,59.95088822132636,
1,-0.2,0.2,None,0,44,44,44,,,,,,,,,,,,,108.12788329995237,None,108.12788329995237,109.12810799991712,109.11367550003342,None,None,1,108.12788329995237,None,,,,,,,,,,,,a,001,2020_Jun_07_1430,n-back-testing,2020.1.3,59.95088822132636,
7,-0.2,-0.2,None,0,45,45,45,,,,,,,,,,,,,110.12792950007133,None,110.12792950007133,111.14112860010937,111.10872759995982,112.10727040003985,None,1,110.12792950007133,None,,,,,,,,,,,,a,001,2020_Jun_07_1430,n-back-testing,2020.1.3,59.95088822132636,
3,0.2,0.2,None,0,46,46,46,,,,,,,,,,,,,112.12574080005288,None,112.12574080005288,113.14088670001365,113.10767850000411,114.1072188001126,None,1,112.12574080005288,None,,,,,,,,,,,,a,001,2020_Jun_07_1430,n-back-testing,2020.1.3,59.95088822132636,
3,0.2,0.2,space,0,47,47,47,,,,,,,,,,,,,114.12573969992809,None,114.12573969992809,115.14023180003278,115.10781230009161,116.10622450010851,None,0,114.12573969992809,None,,,,,,,,,,,,a,001,2020_Jun_07_1430,n-back-testing,2020.1.3,59.95088822132636,
9,0.2,-0.2,None,0,48,48,48,,,,,,,,,,,,,116.12534840009175,None,116.12534840009175,117.13930619996972,117.10729430010542,118.10708230012096,None,1,116.12534840009175,None,,,,,,,,,,,,a,001,2020_Jun_07_1430,n-back-testing,2020.1.3,59.95088822132636,
7,-0.2,-0.2,None,0,49,49,49,,,,,,,,,,,,,118.12576569989324,None,118.12576569989324,119.13916360004805,119.10652210004628,120.10561600001529,None,1,118.12576569989324,None,,,,,,,,,,,,a,001,2020_Jun_07_1430,n-back-testing,2020.1.3,59.95088822132636,
5,0.0,0.0,None,0,50,50,50,,,,,,,,,,,,,120.12382890004665,None,120.12382890004665,121.12552080000751,121.1077219999861,122.10489289998077,None,1,120.12382890004665,None,,,,,,,,,,,,a,001,2020_Jun_07_1430,n-back-testing,2020.1.3,59.95088822132636,
8,0.0,-0.2,None,0,51,51,51,,,,,,,,,,,,,122.12368840002455,None,122.12368840002455,123.13856839993969,123.10603579995222,124.10430089989677,None,1,122.12368840002455,None,,,,,,,,,,,,a,001,2020_Jun_07_1430,n-back-testing,2020.1.3,59.95088822132636,
8,0.0,-0.2,space,0,52,52,52,,,,,,,,,,,,,124.12393060000613,None,124.12393060000613,125.13957090000622,125.10643290006556,126.10403600009158,space,1,124.12393060000613,None,0.5495147998444736,,,,,,,,,,,a,001,2020_Jun_07_1430,n-back-testing,2020.1.3,59.95088822132636,
7,-0.2,-0.2,None,0,53,53,53,,,,,,,,,,,,,126.12383730011061,None,126.12383730011061,127.12555229989812,127.10779780009761,128.10460669989698,None,1,126.12383730011061,None,,,,,,,,,,,,a,001,2020_Jun_07_1430,n-back-testing,2020.1.3,59.95088822132636,
4,-0.2,0.0,None,0,54,54,54,,,,,,,,,,,,,128.12479969998822,None,128.12479969998822,129.1396600001026,129.1065976000391,None,None,1,128.12479969998822,None,,,,,,,,,,,,a,001,2020_Jun_07_1430,n-back-testing,2020.1.3,59.95088822132636,
5,0.0,0.0,None,0,55,55,55,,,,,,,,,,,,,130.12141199992038,None,130.12141199992038,131.12189910002053,131.10488509992138,132.10266140010208,None,1,130.12141199992038,None,,,,,,,,,,,,a,001,2020_Jun_07_1430,n-back-testing,2020.1.3,59.95088822132636,
5,0.0,0.0,space,0,56,56,56,,,,,,,,,,,,,132.12388650001958,None,132.12388650001958,133.13666300009936,133.1046319999732,134.10249139997177,space,1,132.12388650001958,None,0.4864825999829918,,,,,,,,,,,a,001,2020_Jun_07_1430,n-back-testing,2020.1.3,59.95088822132636,
2,0.0,0.2,None,0,57,57,57,,,,,,,,,,,,,134.1206141000148,None,134.1206141000148,135.1218799999915,135.1050495998934,136.1204301000107,None,1,134.1206141000148,None,,,,,,,,,,,,a,001,2020_Jun_07_1430,n-back-testing,2020.1.3,59.95088822132636,
2,0.0,0.2,space,0,58,58,58,,,,,,,,,,,,,136.13694619992748,None,136.13694619992748,137.1367220999673,137.12186149996705,None,space,1,136.13694619992748,None,0.6003692999947816,,,,,,,,,,,a,001,2020_Jun_07_1430,n-back-testing,2020.1.3,59.95088822132636,
6,0.2,0.0,None,0,59,59,59,,,,,,,,,,,,,138.1356148000341,None,138.1356148000341,139.1366324000992,139.12146349996328,None,None,1,138.1356148000341,None,,,,,,,,,,,,a,001,2020_Jun_07_1430,n-back-testing,2020.1.3,59.95088822132636,
5,0.0,0.0,None,,,,,0,0,0,0,,,,,,,,,147.10314369993284,None,147.10314369993284,148.11537960008718,148.09912459994666,None,None,1,147.10314369993284,None,,140.1350434999913,None,146.06636580009945,None,,,,,,,a,001,2020_Jun_07_1430,n-back-testing,2020.1.3,59.95088822132636,
2,0.0,0.2,None,,,,,0,1,1,1,,,,,,,,,149.08271569991484,None,149.08271569991484,150.08122979989275,150.06583900004625,None,None,1,149.08271569991484,None,,,,,,,,,,,,a,001,2020_Jun_07_1430,n-back-testing,2020.1.3,59.95088822132636,
6,0.2,0.0,None,,,,,0,2,2,2,,,,,,,,,151.0810024999082,None,151.0810024999082,152.0806696000509,152.0653303998988,None,None,1,151.0810024999082,None,,,,,,,,,,,,a,001,2020_Jun_07_1430,n-back-testing,2020.1.3,59.95088822132636,
9,0.2,-0.2,None,,,,,0,3,3,3,,,,,,,,,153.08049280010164,None,153.08049280010164,154.08028049999848,154.06513040000573,None,None,1,153.08049280010164,None,,,,,,,,,,,,a,001,2020_Jun_07_1430,n-back-testing,2020.1.3,59.95088822132636,
3,0.2,0.2,None,,,,,0,4,4,4,,,,,,,,,155.0798788999673,None,155.0798788999673,156.0796149999369,156.06502189999446,None,None,1,155.0798788999673,None,,,,,,,,,,,,a,001,2020_Jun_07_1430,n-back-testing,2020.1.3,59.95088822132636,
9,0.2,-0.2,space,,,,,0,5,5,5,,,,,,,,,157.07960480009206,None,157.07960480009206,158.07920629996806,158.0645274000708,None,space,1,157.07960480009206,None,0.4258081999141723,,,,,,,,,,,a,001,2020_Jun_07_1430,n-back-testing,2020.1.3,59.95088822132636,
7,-0.2,-0.2,None,,,,,0,6,6,6,,,,,,,,,159.07946199993603,None,159.07946199993603,160.07860199990682,160.06360700004734,None,None,1,159.07946199993603,None,,,,,,,,,,,,a,001,2020_Jun_07_1430,n-back-testing,2020.1.3,59.95088822132636,
1,-0.2,0.2,None,,,,,0,7,7,7,,,,,,,,,161.07995499996468,None,161.07995499996468,162.07823009998538,162.0635790999513,None,None,1,161.07995499996468,None,,,,,,,,,,,,a,001,2020_Jun_07_1430,n-back-testing,2020.1.3,59.95088822132636,
5,0.0,0.0,None,,,,,0,8,8,8,,,,,,,,,163.07874549995176,None,163.07874549995176,164.07810620008968,164.06363230012357,None,None,1,163.07874549995176,None,,,,,,,,,,,,a,001,2020_Jun_07_1430,n-back-testing,2020.1.3,59.95088822132636,
7,-0.2,-0.2,None,,,,,0,9,9,9,,,,,,,,,165.07929809996858,None,165.07929809996858,166.0796207000967,166.0653333000373,None,None,1,165.07929809996858,None,,,,,,,,,,,,a,001,2020_Jun_07_1430,n-back-testing,2020.1.3,59.95088822132636,
5,0.0,0.0,space,,,,,0,10,10,10,,,,,,,,,167.07984689995646,None,167.07984689995646,168.0795674000401,168.06526730000041,None,space,1,167.07984689995646,None,0.5457786999177188,,,,,,,,,,,a,001,2020_Jun_07_1430,n-back-testing,2020.1.3,59.95088822132636,
6,0.2,0.0,None,,,,,0,11,11,11,,,,,,,,,169.07881699991412,None,169.07881699991412,170.07765439990908,170.06361340009607,None,None,1,169.07881699991412,None,,,,,,,,,,,,a,001,2020_Jun_07_1430,n-back-testing,2020.1.3,59.95088822132636,
3,0.2,0.2,None,,,,,0,12,12,12,,,,,,,,,171.07707970007323,None,171.07707970007323,172.07892340002581,172.06430420000106,None,None,1,171.07707970007323,None,,,,,,,,,,,,a,001,2020_Jun_07_1430,n-back-testing,2020.1.3,59.95088822132636,
6,0.2,0.0,space,,,,,0,13,13,13,,,,,,,,,173.07800019998103,None,173.07800019998103,174.0761098000221,174.06186209991574,None,space,1,173.07800019998103,None,0.4673170999158174,,,,,,,,,,,a,001,2020_Jun_07_1430,n-back-testing,2020.1.3,59.95088822132636,
8,0.0,-0.2,None,,,,,0,14,14,14,,,,,,,,,175.07646119990386,None,175.07646119990386,176.0758146001026,176.06147009995766,None,None,1,175.07646119990386,None,,,,,,,,,,,,a,001,2020_Jun_07_1430,n-back-testing,2020.1.3,59.95088822132636,
9,0.2,-0.2,None,,,,,0,15,15,15,,,,,,,,,177.077599799959,None,177.077599799959,178.07584629999474,178.06156189995818,None,None,1,177.077599799959,None,,,,,,,,,,,,a,001,2020_Jun_07_1430,n-back-testing,2020.1.3,59.95088822132636,
9,0.2,-0.2,None,,,,,0,16,16,16,,,,,,,,,179.07433680002578,None,179.07433680002578,180.07554930006154,180.0588692999445,None,None,1,179.07433680002578,None,,,,,,,,,,,,a,001,2020_Jun_07_1430,n-back-testing,2020.1.3,59.95088822132636,
1,-0.2,0.2,None,,,,,0,17,17,17,,,,,,,,,181.07529680011794,None,181.07529680011794,182.0736132999882,182.05936930002645,None,None,1,181.07529680011794,None,,,,,,,,,,,,a,001,2020_Jun_07_1430,n-back-testing,2020.1.3,59.95088822132636,
3,0.2,0.2,None,,,,,0,18,18,18,,,,,,,,,183.07342749997042,None,183.07342749997042,184.07310090004466,184.05883349990472,None,None,1,183.07342749997042,None,,,,,,,,,,,,a,001,2020_Jun_07_1430,n-back-testing,2020.1.3,59.95088822132636,
5,0.0,0.0,None,,,,,0,19,19,19,,,,,,,,,185.07371379993856,None,185.07371379993856,186.07328670006245,186.05932860006578,None,None,1,185.07371379993856,None,,,,,,,,,,,,a,001,2020_Jun_07_1430,n-back-testing,2020.1.3,59.95088822132636,
3,0.2,0.2,space,,,,,0,20,20,20,,,,,,,,,187.07439170009457,None,187.07439170009457,188.0727039000485,188.05839050002396,None,space,1,187.07439170009457,None,0.42378859990276396,,,,,,,,,,,a,001,2020_Jun_07_1430,n-back-testing,2020.1.3,59.95088822132636,
4,-0.2,0.0,None,,,,,0,21,21,21,,,,,,,,,189.0740789999254,None,189.0740789999254,190.07279879995622,190.0588487999048,None,None,1,189.0740789999254,None,,,,,,,,,,,,a,001,2020_Jun_07_1430,n-back-testing,2020.1.3,59.95088822132636,
7,-0.2,-0.2,None,,,,,0,22,22,22,,,,,,,,,191.08873070008121,None,191.08873070008121,192.08983390009962,192.05779849993996,None,None,1,191.08873070008121,None,,,,,,,,,,,,a,001,2020_Jun_07_1430,n-back-testing,2020.1.3,59.95088822132636,
4,-0.2,0.0,space,,,,,0,23,23,23,,,,,,,,,193.08868640009314,None,193.08868640009314,194.08935640007257,194.05823990004137,None,space,1,193.08868640009314,None,0.40887539996765554,,,,,,,,,,,a,001,2020_Jun_07_1430,n-back-testing,2020.1.3,59.95088822132636,
4,-0.2,0.0,None,,,,,0,24,24,24,,,,,,,,,195.0717249000445,None,195.0717249000445,196.07034029997885,196.05554460012354,None,None,1,195.0717249000445,None,,,,,,,,,,,,a,001,2020_Jun_07_1430,n-back-testing,2020.1.3,59.95088822132636,
5,0.0,0.0,None,,,,,0,25,25,25,,,,,,,,,197.07250369992107,None,197.07250369992107,198.07221299991943,198.05791909992695,None,None,1,197.07250369992107,None,,,,,,,,,,,,a,001,2020_Jun_07_1430,n-back-testing,2020.1.3,59.95088822132636,
2,0.0,0.2,None,,,,,0,26,26,26,,,,,,,,,199.07088080001995,None,199.07088080001995,200.07206470007077,200.05664510000497,None,None,1,199.07088080001995,None,,,,,,,,,,,,a,001,2020_Jun_07_1430,n-back-testing,2020.1.3,59.95088822132636,
6,0.2,0.0,None,,,,,0,27,27,27,,,,,,,,,201.07170620001853,None,201.07170620001853,202.07081350008957,202.056259999983,None,None,1,201.07170620001853,None,,,,,,,,,,,,a,001,2020_Jun_07_1430,n-back-testing,2020.1.3,59.95088822132636,
7,-0.2,-0.2,None,,,,,0,28,28,28,,,,,,,,,203.07120339991525,None,203.07120339991525,204.08939710003324,204.0530252000317,205.05384259996936,None,1,203.07120339991525,None,,,,,,,,,,,,a,001,2020_Jun_07_1430,n-back-testing,2020.1.3,59.95088822132636,
6,0.2,0.0,space,,,,,0,29,29,29,,,,,,,,,205.0829747999087,None,205.0829747999087,206.08538879989646,206.05398189998232,None,space,1,205.0829747999087,None,0.43896200018934906,,,,,,,,,,,a,001,2020_Jun_07_1430,n-back-testing,2020.1.3,59.95088822132636,
8,0.0,-0.2,None,,,,,0,30,30,30,,,,,,,,,207.07229809998535,None,207.07229809998535,208.08542939997278,208.06790939997882,209.06783220008947,None,1,207.07229809998535,None,,,,,,,,,,,,a,001,2020_Jun_07_1430,n-back-testing,2020.1.3,59.95088822132636,
2,0.0,0.2,None,,,,,0,31,31,31,,,,,,,,,209.08382540009916,None,209.08382540009916,210.08383170003071,210.06673779990524,None,None,1,209.08382540009916,None,,,,,,,,,,,,a,001,2020_Jun_07_1430,n-back-testing,2020.1.3,59.95088822132636,
8,0.0,-0.2,space,,,,,0,32,32,32,,,,,,,,,211.08410040009767,None,211.08410040009767,212.0992785000708,212.06659159995615,213.06568869994953,space,1,211.08410040009767,None,0.45312870014458895,,,,,,,,,,,a,001,2020_Jun_07_1430,n-back-testing,2020.1.3,59.95088822132636,
9,0.2,-0.2,None,,,,,0,33,33,33,,,,,,,,,213.082463900093,None,213.082463900093,214.08236379991286,214.06661879993044,None,None,1,213.082463900093,None,,,,,,,,,,,,a,001,2020_Jun_07_1430,n-back-testing,2020.1.3,59.95088822132636,
6,0.2,0.0,None,,,,,0,34,34,34,,,,,,,,,215.08160030003637,None,215.08160030003637,216.08141770004295,216.06619259994477,None,None,1,215.08160030003637,None,,,,,,,,,,,,a,001,2020_Jun_07_1430,n-back-testing,2020.1.3,59.95088822132636,
9,0.2,-0.2,space,,,,,0,35,35,35,,,,,,,,,217.08141579991207,None,217.08141579991207,218.08070420008153,218.06571709993295,None,space,1,217.08141579991207,None,0.4564008000306785,,,,,,,,,,,a,001,2020_Jun_07_1430,n-back-testing,2020.1.3,59.95088822132636,
4,-0.2,0.0,None,,,,,0,36,36,36,,,,,,,,,219.08034910005517,None,219.08034910005517,220.0800912999548,220.0647483000066,None,None,1,219.08034910005517,None,,,,,,,,,,,,a,001,2020_Jun_07_1430,n-back-testing,2020.1.3,59.95088822132636,
3,0.2,0.2,None,,,,,0,37,37,37,,,,,,,,,221.07996700005606,None,221.07996700005606,222.07977350009605,222.06510040001012,None,None,1,221.07996700005606,None,,,,,,,,,,,,a,001,2020_Jun_07_1430,n-back-testing,2020.1.3,59.95088822132636,
8,0.0,-0.2,None,,,,,0,38,38,38,,,,,,,,,223.07951779989526,None,223.07951779989526,224.07920249993913,224.0647179998923,None,None,1,223.07951779989526,None,,,,,,,,,,,,a,001,2020_Jun_07_1430,n-back-testing,2020.1.3,59.95088822132636,
3,0.2,0.2,space,,,,,0,39,39,39,,,,,,,,,225.07903790008277,None,225.07903790008277,226.07883720006794,226.0641727000475,None,space,1,225.07903790008277,None,0.41025039996020496,,,,,,,,,,,a,001,2020_Jun_07_1430,n-back-testing,2020.1.3,59.95088822132636,
1,-0.2,0.2,None,,,,,0,40,40,40,,,,,,,,,227.07870980002917,None,227.07870980002917,228.07837329991162,228.06342920009047,None,None,1,227.07870980002917,None,,,,,,,,,,,,a,001,2020_Jun_07_1430,n-back-testing,2020.1.3,59.95088822132636,
4,-0.2,0.0,None,,,,,0,41,41,41,,,,,,,,,229.07928510010242,None,229.07928510010242,230.07794059999287,230.06330989999697,None,None,1,229.07928510010242,None,,,,,,,,,,,,a,001,2020_Jun_07_1430,n-back-testing,2020.1.3,59.95088822132636,
2,0.0,0.2,None,,,,,0,42,42,42,,,,,,,,,231.07818490010686,None,231.07818490010686,232.07783360010944,232.06335390009917,None,None,1,231.07818490010686,None,,,,,,,,,,,,a,001,2020_Jun_07_1430,n-back-testing,2020.1.3,59.95088822132636,
4,-0.2,0.0,space,,,,,0,43,43,43,,,,,,,,,233.07965219998732,None,233.07965219998732,234.0780068000313,234.06412180000916,None,space,1,233.07965219998732,None,0.433635100023821,,,,,,,,,,,a,001,2020_Jun_07_1430,n-back-testing,2020.1.3,59.95088822132636,
8,0.0,-0.2,None,,,,,0,44,44,44,,,,,,,,,235.07895200001076,None,235.07895200001076,236.07842939998955,236.06405839999206,None,None,1,235.07895200001076,None,,,,,,,,,,,,a,001,2020_Jun_07_1430,n-back-testing,2020.1.3,59.95088822132636,
5,0.0,0.0,None,,,,,0,45,45,45,,,,,,,,,237.0793057999108,None,237.0793057999108,238.0942496000789,238.0613140000496,None,None,1,237.0793057999108,None,,,,,,,,,,,,a,001,2020_Jun_07_1430,n-back-testing,2020.1.3,59.95088822132636,
1,-0.2,0.2,None,,,,,0,46,46,46,,,,,,,,,239.0777753998991,None,239.0777753998991,240.0790518000722,240.06684749992564,None,None,1,239.0777753998991,None,,,,,,,,,,,,a,001,2020_Jun_07_1430,n-back-testing,2020.1.3,59.95088822132636,
5,0.0,0.0,space,,,,,0,47,47,47,,,,,,,,,241.07639169995673,None,241.07639169995673,242.07689079991542,242.06222399999388,None,space,1,241.07639169995673,None,0.397932399995625,,,,,,,,,,,a,001,2020_Jun_07_1430,n-back-testing,2020.1.3,59.95088822132636,
3,0.2,0.2,None,,,,,0,48,48,48,,,,,,,,,243.07435050001368,None,243.07435050001368,244.07404939993285,244.05928410007618,None,None,1,243.07435050001368,None,,,,,,,,,,,,a,001,2020_Jun_07_1430,n-back-testing,2020.1.3,59.95088822132636,
6,0.2,0.0,None,,,,,0,49,49,49,,,,,,,,,245.07484390004538,None,245.07484390004538,246.07411379995756,246.0599164001178,None,None,1,245.07484390004538,None,,,,,,,,,,,,a,001,2020_Jun_07_1430,n-back-testing,2020.1.3,59.95088822132636,
1,-0.2,0.2,None,,,,,0,50,50,50,,,,,,,,,247.07452769996598,None,247.07452769996598,248.0733356999699,248.05866819992661,None,None,1,247.07452769996598,None,,,,,,,,,,,,a,001,2020_Jun_07_1430,n-back-testing,2020.1.3,59.95088822132636,
3,0.2,0.2,None,,,,,0,51,51,51,,,,,,,,,249.07303730002604,None,249.07303730002604,250.07259369990788,250.05821099993773,None,None,1,249.07303730002604,None,,,,,,,,,,,,a,001,2020_Jun_07_1430,n-back-testing,2020.1.3,59.95088822132636,
1,-0.2,0.2,space,,,,,0,52,52,52,,,,,,,,,251.07357500004582,None,251.07357500004582,252.07260069996119,252.0584164999891,None,space,1,251.07357500004582,None,0.4557724001351744,,,,,,,,,,,a,001,2020_Jun_07_1430,n-back-testing,2020.1.3,59.95088822132636,
2,0.0,0.2,None,,,,,0,53,53,53,,,,,,,,,253.07377670006827,None,253.07377670006827,254.07304410007782,254.05871649994515,None,None,1,253.07377670006827,None,,,,,,,,,,,,a,001,2020_Jun_07_1430,n-back-testing,2020.1.3,59.95088822132636,
1,-0.2,0.2,space,,,,,0,54,54,54,,,,,,,,,255.0727033999283,None,255.0727033999283,256.071314800065,256.0575568000786,None,None,0,255.0727033999283,None,,,,,,,,,,,,a,001,2020_Jun_07_1430,n-back-testing,2020.1.3,59.95088822132636,
1,-0.2,0.2,None,,,,,0,55,55,55,,,,,,,,,257.07313379994594,None,257.07313379994594,258.07352419989184,258.0592924999073,None,space,0,257.07313379994594,None,0.6728848000057042,,,,,,,,,,,a,001,2020_Jun_07_1430,n-back-testing,2020.1.3,59.95088822132636,
7,-0.2,-0.2,None,,,,,0,56,56,56,,,,,,,,,259.07348409993574,None,259.07348409993574,260.0722082001157,260.05871989997104,None,None,1,259.07348409993574,None,,,,,,,,,,,,a,001,2020_Jun_07_1430,n-back-testing,2020.1.3,59.95088822132636,
2,0.0,0.2,None,,,,,0,57,57,57,,,,,,,,,261.0706066999119,None,261.0706066999119,262.07100649992935,262.0561899000313,None,None,1,261.0706066999119,None,,,,,,,,,,,,a,001,2020_Jun_07_1430,n-back-testing,2020.1.3,59.95088822132636,
7,-0.2,-0.2,space,,,,,0,58,58,58,,,,,,,,,263.0706674999092,None,263.0706674999092,264.07188210007735,264.0577020999044,None,space,1,263.0706674999092,None,0.7545517000835389,,,,,,,,,,,a,001,2020_Jun_07_1430,n-back-testing,2020.1.3,59.95088822132636,
6,0.2,0.0,None,,,,,0,59,59,59,,,,,,,,,265.07202999992296,None,265.07202999992296,266.0716784000397,266.056581400102,None,None,1,265.07202999992296,None,,,,,,,,,,,,a,001,2020_Jun_07_1430,n-back-testing,2020.1.3,59.95088822132636,
4,-0.2,0.0,None,,,,,,,,,0,0,0,0,,,,,273.32509880000725,None,273.32509880000725,274.3358617001213,274.31852540001273,None,None,1,273.32509880000725,None,,,,,,267.06942140008323,None,272.28779820003547,None,,,a,001,2020_Jun_07_1430,n-back-testing,2020.1.3,59.95088822132636,
2,0.0,0.2,None,,,,,,,,,0,1,1,1,,,,,275.3096062000841,None,275.3096062000841,276.32160339993425,276.303278000094,None,None,1,275.3096062000841,None,,,,,,,,,,,,a,001,2020_Jun_07_1430,n-back-testing,2020.1.3,59.95088822132636,
9,0.2,-0.2,None,,,,,,,,,0,2,2,2,,,,,277.3006680000108,None,277.3006680000108,278.31630320008844,278.283082799986,279.2825148999691,None,1,277.3006680000108,None,,,,,,,,,,,,a,001,2020_Jun_07_1430,n-back-testing,2020.1.3,59.95088822132636,
4,-0.2,0.0,space,,,,,,,,,0,3,3,3,,,,,279.3001610999927,None,279.3001610999927,280.3164929000195,280.2819646000862,281.2824057000689,space,1,279.3001610999927,None,0.526021899888292,,,,,,,,,,,a,001,2020_Jun_07_1430,n-back-testing,2020.1.3,59.95088822132636,
3,0.2,0.2,None,,,,,,,,,0,4,4,4,,,,,281.3013367999811,None,281.3013367999811,282.3147644000128,282.2812431999482,283.28140949993394,None,1,281.3013367999811,None,,,,,,,,,,,,a,001,2020_Jun_07_1430,n-back-testing,2020.1.3,59.95088822132636,
9,0.2,-0.2,space,,,,,,,,,0,5,5,5,,,,,283.2989141999278,None,283.2989141999278,284.3144135000184,284.2807161998935,285.28050970006734,space,1,283.2989141999278,None,0.6632082001306117,,,,,,,,,,,a,001,2020_Jun_07_1430,n-back-testing,2020.1.3,59.95088822132636,
1,-0.2,0.2,None,,,,,,,,,0,6,6,6,,,,,285.29892500001006,None,285.29892500001006,286.3139166999608,286.2804435000289,287.28008670010604,None,1,285.29892500001006,None,,,,,,,,,,,,a,001,2020_Jun_07_1430,n-back-testing,2020.1.3,59.95088822132636,
1,-0.2,0.2,None,,,,,,,,,0,7,7,7,,,,,287.29898729990236,None,287.29898729990236,288.3133207000792,288.279836300062,289.2795762999449,None,1,287.29898729990236,None,,,,,,,,,,,,a,001,2020_Jun_07_1430,n-back-testing,2020.1.3,59.95088822132636,
6,0.2,0.0,None,,,,,,,,,0,8,8,8,,,,,289.29815150005743,None,289.29815150005743,290.31283130007796,290.2794572999701,291.2790785001125,None,1,289.29815150005743,None,,,,,,,,,,,,a,001,2020_Jun_07_1430,n-back-testing,2020.1.3,59.95088822132636,
1,-0.2,0.2,space,,,,,,,,,0,9,9,9,,,,,291.2981283001136,None,291.2981283001136,292.3122054000851,292.27887729997747,293.27959139994346,space,1,291.2981283001136,None,0.49561950005590916,,,,,,,,,,,a,001,2020_Jun_07_1430,n-back-testing,2020.1.3,59.95088822132636,
5,0.0,0.0,None,,,,,,,,,0,10,10,10,,,,,293.2999770999886,None,293.2999770999886,294.3117549000308,294.27836659993045,295.27817700011656,None,1,293.2999770999886,None,,,,,,,,,,,,a,001,2020_Jun_07_1430,n-back-testing,2020.1.3,59.95088822132636,
6,0.2,0.0,space,,,,,,,,,0,11,11,11,,,,,295.29791520000435,None,295.29791520000435,296.3111888000276,296.2798949999269,297.27765509998426,None,0,295.29791520000435,None,,,,,,,,,,,,a,001,2020_Jun_07_1430,n-back-testing,2020.1.3,59.95088822132636,
3,0.2,0.2,None,,,,,,,,,0,12,12,12,,,,,297.2960864000488,None,297.2960864000488,298.3107261999976,298.2775344001129,299.27699830010533,None,1,297.2960864000488,None,,,,,,,,,,,,a,001,2020_Jun_07_1430,n-back-testing,2020.1.3,59.95088822132636,
1,-0.2,0.2,None,,,,,,,,,0,13,13,13,,,,,299.2958823000081,None,299.2958823000081,300.3112174998969,300.2780402000062,301.2777589999605,None,1,299.2958823000081,None,,,,,,,,,,,,a,001,2020_Jun_07_1430,n-back-testing,2020.1.3,59.95088822132636,
7,-0.2,-0.2,None,,,,,,,,,0,14,14,14,,,,,301.2965949999634,None,301.2965949999634,302.30996349989437,302.2764334999956,303.2763048000634,None,1,301.2965949999634,None,,,,,,,,,,,,a,001,2020_Jun_07_1430,n-back-testing,2020.1.3,59.95088822132636,
9,0.2,-0.2,None,,,,,,,,,0,15,15,15,,,,,303.2944293001201,None,303.2944293001201,304.29536029999144,304.27804920007475,305.27725669997744,None,1,303.2944293001201,None,,,,,,,,,,,,a,001,2020_Jun_07_1430,n-back-testing,2020.1.3,59.95088822132636,
1,-0.2,0.2,space,,,,,,,,,0,16,16,16,,,,,305.30858900002204,None,305.30858900002204,306.31192469992675,306.27841760008596,None,space,1,305.30858900002204,None,0.6775759998708963,,,,,,,,,,,a,001,2020_Jun_07_1430,n-back-testing,2020.1.3,59.95088822132636,
3,0.2,0.2,None,,,,,,,,,0,17,17,17,,,,,307.29420639993623,None,307.29420639993623,308.3095557000488,308.2754951999523,309.2746635999065,None,1,307.29420639993623,None,,,,,,,,,,,,a,001,2020_Jun_07_1430,n-back-testing,2020.1.3,59.95088822132636,
7,-0.2,-0.2,None,,,,,,,,,0,18,18,18,,,,,309.29857699992135,None,309.29857699992135,310.3087714998983,310.27466610004194,311.2742941000033,None,1,309.29857699992135,None,,,,,,,,,,,,a,001,2020_Jun_07_1430,n-back-testing,2020.1.3,59.95088822132636,
5,0.0,0.0,None,,,,,,,,,0,19,19,19,,,,,311.2930974001065,None,311.2930974001065,312.30872120009735,312.27399910008535,313.27478200010955,None,1,311.2930974001065,None,,,,,,,,,,,,a,001,2020_Jun_07_1430,n-back-testing,2020.1.3,59.95088822132636,
3,0.2,0.2,space,,,,,,,,,0,20,20,20,,,,,313.29245180008,None,313.29245180008,314.3077227000613,314.27378310007043,315.27300789998844,space,1,313.29245180008,None,0.6130448998883367,,,,,,,,,,,a,001,2020_Jun_07_1430,n-back-testing,2020.1.3,59.95088822132636,
8,0.0,-0.2,None,,,,,,,,,0,21,21,21,,,,,315.3090564000886,None,315.3090564000886,316.30880709993653,316.29277590010315,None,None,1,315.3090564000886,None,,,,,,,,,,,,a,001,2020_Jun_07_1430,n-back-testing,2020.1.3,59.95088822132636,
7,-0.2,-0.2,None,,,,,,,,,0,22,22,22,,,,,317.2932579999324,None,317.2932579999324,318.3065484999679,318.27236209996045,319.27258129999973,None,1,317.2932579999324,None,,,,,,,,,,,,a,001,2020_Jun_07_1430,n-back-testing,2020.1.3,59.95088822132636,
4,-0.2,0.0,None,,,,,,,,,0,23,23,23,,,,,319.30668499995954,None,319.30668499995954,320.30700380005874,320.2905921000056,None,None,1,319.30668499995954,None,,,,,,,,,,,,a,001,2020_Jun_07_1430,n-back-testing,2020.1.3,59.95088822132636,
8,0.0,-0.2,space,,,,,,,,,0,24,24,24,,,,,321.30658280011266,None,321.30658280011266,322.3065857999027,322.2906516001094,None,space,1,321.30658280011266,None,0.42364279995672405,,,,,,,,,,,a,001,2020_Jun_07_1430,n-back-testing,2020.1.3,59.95088822132636,
5,0.0,0.0,None,,,,,,,,,0,25,25,25,,,,,323.30682369996794,None,323.30682369996794,324.30624819989316,324.29056319990195,None,None,1,323.30682369996794,None,,,,,,,,,,,,a,001,2020_Jun_07_1430,n-back-testing,2020.1.3,59.95088822132636,
2,0.0,0.2,None,,,,,,,,,0,26,26,26,,,,,325.3063489999622,None,325.3063489999622,326.30708909989335,326.2912349998951,None,None,1,325.3063489999622,None,,,,,,,,,,,,a,001,2020_Jun_07_1430,n-back-testing,2020.1.3,59.95088822132636,
6,0.2,0.0,None,,,,,,,,,0,27,27,27,,,,,327.306401199894,None,327.306401199894,328.3226411999203,328.2889634000603,329.29118370008655,None,1,327.306401199894,None,,,,,,,,,,,,a,001,2020_Jun_07_1430,n-back-testing,2020.1.3,59.95088822132636,
5,0.0,0.0,space,,,,,,,,,0,28,28,28,,,,,329.30626709992066,None,329.30626709992066,330.30579370004125,330.2902188000735,None,space,1,329.30626709992066,None,0.7829665997996926,,,,,,,,,,,a,001,2020_Jun_07_1430,n-back-testing,2020.1.3,59.95088822132636,
2,0.0,0.2,space,,,,,,,,,0,29,29,29,,,,,331.3032400999218,None,331.3032400999218,332.3061671999749,332.2905415999703,None,space,1,331.3032400999218,None,0.9867389001883566,,,,,,,,,,,a,001,2020_Jun_07_1430,n-back-testing,2020.1.3,59.95088822132636,
5,0.0,0.0,None,,,,,,,,,0,30,30,30,,,,,333.3042293000035,None,333.3042293000035,334.3049761999864,334.2874018000439,None,None,1,333.3042293000035,None,,,,,,,,,,,,a,001,2020_Jun_07_1430,n-back-testing,2020.1.3,59.95088822132636,
2,0.0,0.2,None,,,,,,,,,0,31,31,31,,,,,335.30482660001144,None,335.30482660001144,336.32257289998233,336.2871026999783,337.28660059999675,None,1,335.30482660001144,None,,,,,,,,,,,,a,001,2020_Jun_07_1430,n-back-testing,2020.1.3,59.95088822132636,
9,0.2,-0.2,None,,,,,,,,,0,32,32,32,,,,,337.3027158000041,None,337.3027158000041,338.30459549999796,338.2854243000038,339.2869486999698,None,1,337.3027158000041,None,,,,,,,,,,,,a,001,2020_Jun_07_1430,n-back-testing,2020.1.3,59.95088822132636,
6,0.2,0.0,None,,,,,,,,,0,33,33,33,,,,,339.3037606999278,None,339.3037606999278,340.3218336000573,340.28576410003006,None,None,1,339.3037606999278,None,,,,,,,,,,,,a,001,2020_Jun_07_1430,n-back-testing,2020.1.3,59.95088822132636,
3,0.2,0.2,None,,,,,,,,,0,34,34,34,,,,,341.3022211000789,None,341.3022211000789,342.31754479999654,342.2844855999574,None,None,1,341.3022211000789,None,,,,,,,,,,,,a,001,2020_Jun_07_1430,n-back-testing,2020.1.3,59.95088822132636,
9,0.2,-0.2,space,,,,,,,,,0,35,35,35,,,,,343.3000336000696,None,343.3000336000696,344.29985930002294,344.28296469990164,None,space,1,343.3000336000696,None,0.4139107000082731,,,,,,,,,,,a,001,2020_Jun_07_1430,n-back-testing,2020.1.3,59.95088822132636,
7,-0.2,-0.2,None,,,,,,,,,0,36,36,36,,,,,345.2994186999276,None,345.2994186999276,346.3154444999527,346.28205449995585,347.28170890011825,None,1,345.2994186999276,None,,,,,,,,,,,,a,001,2020_Jun_07_1430,n-back-testing,2020.1.3,59.95088822132636,
5,0.0,0.0,None,,,,,,,,,0,37,37,37,,,,,347.2989926999435,None,347.2989926999435,348.31472310004756,348.2813711001072,349.2811712999828,None,1,347.2989926999435,None,,,,,,,,,,,,a,001,2020_Jun_07_1430,n-back-testing,2020.1.3,59.95088822132636,
1,-0.2,0.2,None,,,,,,,,,0,38,38,38,,,,,349.29849920002744,None,349.29849920002744,350.31410209997557,350.2808123999275,351.2805206000339,None,1,349.29849920002744,None,,,,,,,,,,,,a,001,2020_Jun_07_1430,n-back-testing,2020.1.3,59.95088822132636,
7,-0.2,-0.2,None,,,,,,,,,0,39,39,39,,,,,351.2981720000971,None,351.2981720000971,352.3134759000968,352.2803762999829,353.28017199994065,space,0,351.2981720000971,None,0.47097270004451275,,,,,,,,,,,a,001,2020_Jun_07_1430,n-back-testing,2020.1.3,59.95088822132636,
5,0.0,0.0,space,,,,,,,,,0,40,40,40,,,,,353.2988466999959,None,353.2988466999959,354.31495440006256,354.2798101999797,355.2796938000247,space,1,353.2988466999959,None,0.6703039999119937,,,,,,,,,,,a,001,2020_Jun_07_1430,n-back-testing,2020.1.3,59.95088822132636,
7,-0.2,-0.2,None,,,,,,,,,0,41,41,41,,,,,355.2979401999619,None,355.2979401999619,356.31284289993346,356.27931039989926,357.27906340011396,None,1,355.2979401999619,None,,,,,,,,,,,,a,001,2020_Jun_07_1430,n-back-testing,2020.1.3,59.95088822132636,
3,0.2,0.2,None,,,,,,,,,0,42,42,42,,,,,357.29791190009564,None,357.29791190009564,358.31195449992083,358.27870759996586,359.2783474000171,None,1,357.29791190009564,None,,,,,,,,,,,,a,001,2020_Jun_07_1430,n-back-testing,2020.1.3,59.95088822132636,
8,0.0,-0.2,None,,,,,,,,,0,43,43,43,,,,,359.2966543000657,None,359.2966543000657,360.31177489995025,360.27831290010363,361.27825609990396,None,1,359.2966543000657,None,,,,,,,,,,,,a,001,2020_Jun_07_1430,n-back-testing,2020.1.3,59.95088822132636,
7,-0.2,-0.2,space,,,,,,,,,0,44,44,44,,,,,361.29685780010186,None,361.29685780010186,362.3113607999403,362.27798629994504,363.2775330999866,None,0,361.29685780010186,None,,,,,,,,,,,,a,001,2020_Jun_07_1430,n-back-testing,2020.1.3,59.95088822132636,
9,0.2,-0.2,None,,,,,,,,,0,45,45,45,,,,,363.2958603000734,None,363.2958603000734,364.3104904999491,364.2772401999682,365.27709760004655,None,1,363.2958603000734,None,,,,,,,,,,,,a,001,2020_Jun_07_1430,n-back-testing,2020.1.3,59.95088822132636,
9,0.2,-0.2,None,,,,,,,,,0,46,46,46,,,,,365.2958565999288,None,365.2958565999288,366.3107829000801,366.2785088000819,None,None,1,365.2958565999288,None,,,,,,,,,,,,a,001,2020_Jun_07_1430,n-back-testing,2020.1.3,59.95088822132636,
3,0.2,0.2,None,,,,,,,,,0,47,47,47,,,,,367.29550880007446,None,367.29550880007446,368.31009549996816,368.27624069992453,369.275911899982,None,1,367.29550880007446,None,,,,,,,,,,,,a,001,2020_Jun_07_1430,n-back-testing,2020.1.3,59.95088822132636,
1,-0.2,0.2,None,,,,,,,,,0,48,48,48,,,,,369.2961327000521,None,369.2961327000521,370.30890899989754,370.27568259998225,371.27572900010273,None,1,369.2961327000521,None,,,,,,,,,,,,a,001,2020_Jun_07_1430,n-back-testing,2020.1.3,59.95088822132636,
5,0.0,0.0,None,,,,,,,,,0,49,49,49,,,,,371.29426999995485,None,371.29426999995485,372.3102307000663,372.27575920009986,373.2752998000942,None,1,371.29426999995485,None,,,,,,,,,,,,a,001,2020_Jun_07_1430,n-back-testing,2020.1.3,59.95088822132636,
3,0.2,0.2,space,,,,,,,,,0,50,50,50,,,,,373.29365339991637,None,373.29365339991637,374.3095277999528,374.27503290004097,375.27479459997267,space,1,373.29365339991637,None,0.9645910002291203,,,,,,,,,,,a,001,2020_Jun_07_1430,n-back-testing,2020.1.3,59.95088822132636,
4,-0.2,0.0,None,,,,,,,,,0,51,51,51,,,,,375.2991408999078,None,375.2991408999078,376.3092682999559,376.2747247000225,377.27424039994366,None,1,375.2991408999078,None,,,,,,,,,,,,a,001,2020_Jun_07_1430,n-back-testing,2020.1.3,59.95088822132636,
7,-0.2,-0.2,None,,,,,,,,,0,52,52,52,,,,,377.29413729999214,None,377.29413729999214,378.3073340000119,378.2736577000469,379.2737201999407,None,1,377.29413729999214,None,,,,,,,,,,,,a,001,2020_Jun_07_1430,n-back-testing,2020.1.3,59.95088822132636,
4,-0.2,0.0,None,,,,,,,,,0,53,53,53,,,,,379.2924685999751,None,379.2924685999751,380.3073879000731,380.2734648999758,381.27310130000114,None,1,379.2924685999751,None,,,,,,,,,,,,a,001,2020_Jun_07_1430,n-back-testing,2020.1.3,59.95088822132636,
4,-0.2,0.0,space,,,,,,,,,0,54,54,54,,,,,381.30664930003695,None,381.30664930003695,382.30666660005227,382.29061680007726,None,space,1,381.30664930003695,None,0.48642650013789535,,,,,,,,,,,a,001,2020_Jun_07_1430,n-back-testing,2020.1.3,59.95088822132636,
5,0.0,0.0,None,,,,,,,,,0,55,55,55,,,,,383.3070328000467,None,383.3070328000467,384.3061975000892,384.2907457998954,None,None,1,383.3070328000467,None,,,,,,,,,,,,a,001,2020_Jun_07_1430,n-back-testing,2020.1.3,59.95088822132636,
6,0.2,0.0,None,,,,,,,,,0,56,56,56,,,,,385.30572509998456,None,385.30572509998456,386.30623460002244,386.2904149000533,None,None,1,385.30572509998456,None,,,,,,,,,,,,a,001,2020_Jun_07_1430,n-back-testing,2020.1.3,59.95088822132636,
2,0.0,0.2,None,,,,,,,,,0,57,57,57,,,,,387.30606690002605,None,387.30606690002605,388.3067735999357,388.2907038999256,None,None,1,387.30606690002605,None,,,,,,,,,,,,a,001,2020_Jun_07_1430,n-back-testing,2020.1.3,59.95088822132636,
7,-0.2,-0.2,None,,,,,,,,,0,58,58,58,,,,,389.3073164001107,None,389.3073164001107,390.3064796999097,390.2908097000327,None,None,1,389.3073164001107,None,,,,,,,,,,,,a,001,2020_Jun_07_1430,n-back-testing,2020.1.3,59.95088822132636,
6,0.2,0.0,space,,,,,,,,,0,59,59,59,,,,,391.30573010002263,None,391.30573010002263,392.3068585000001,392.29085200000554,None,space,1,391.30573010002263,None,0.8402905000839382,,,,,,,,,,,a,001,2020_Jun_07_1430,n-back-testing,2020.1.3,59.95088822132636,
,,,,,,,,,,,,,,,,,,,,,,,,,,,,,,,,,,,,,,,393.3046832000837,None,,,,,,,
