trialResp.keys,trialResp.corr,trialResp.rt,trials1.thisRepN,trials1.thisTrialN,trials1.thisN,trials1.thisIndex,trials1.ran,square,loc1,loc2,corrAns,participant,session,date,expName,psychopyVersion,OS,frameRate,trials2.thisRepN,trials2.thisTrialN,trials2.thisN,trials2.thisIndex,trials2.ran,trials.thisRepN,trials.thisTrialN,trials.thisN,trials.thisIndex,trials.ran
space,0,1.1878,0,0,0,0,1,6,0.2,0,,daniel macdonald,001,2022-03-01_14h37.22.238,nBackAlpha3,2020.1.3,Win32,60,,,,,,,,,,
space,1,1.8951,0,1,1,1,1,6,0.2,0,space,daniel macdonald,001,2022-03-01_14h37.22.238,nBackAlpha3,2020.1.3,Win32,60,,,,,,,,,,
space,0,0.8706,0,2,2,2,1,2,0,0.2,,daniel macdonald,001,2022-03-01_14h37.22.238,nBackAlpha3,2020.1.3,Win32,60,,,,,,,,,,
space,0,1.3799,0,3,3,3,1,9,0.2,-0.2,,daniel macdonald,001,2022-03-01_14h37.22.238,nBackAlpha3,2020.1.3,Win32,60,,,,,,,,,,
space,1,0.2691,0,4,4,4,1,9,0.2,-0.2,space,daniel macdonald,001,2022-03-01_14h37.22.238,nBackAlpha3,2020.1.3,Win32,60,,,,,,,,,,
space,0,1.3506,0,5,5,5,1,6,0.2,0,,daniel macdonald,001,2022-03-01_14h37.22.238,nBackAlpha3,2020.1.3,Win32,60,,,,,,,,,,
space,0,1.2471,0,6,6,6,1,4,-0.2,0,,daniel macdonald,001,2022-03-01_14h37.22.238,nBackAlpha3,2020.1.3,Win32,60,,,,,,,,,,
space,0,0.1976,0,7,7,7,1,3,0.2,0.2,,daniel macdonald,001,2022-03-01_14h37.22.238,nBackAlpha3,2020.1.3,Win32,60,,,,,,,,,,
space,1,1.3613,0,8,8,8,1,3,0.2,0.2,space,daniel macdonald,001,2022-03-01_14h37.22.238,nBackAlpha3,2020.1.3,Win32,60,,,,,,,,,,
space,0,1.7245,0,9,9,9,1,8,0,-0.2,,daniel macdonald,001,2022-03-01_14h37.22.238,nBackAlpha3,2020.1.3,Win32,60,,,,,,,,,,
space,0,1.947,0,10,10,10,1,1,-0.2,0.2,,daniel macdonald,001,2022-03-01_14h37.22.238,nBackAlpha3,2020.1.3,Win32,60,,,,,,,,,,
,1,,0,11,11,11,1,2,0,0.2,,daniel macdonald,001,2022-03-01_14h37.22.238,nBackAlpha3,2020.1.3,Win32,60,,,,,,,,,,
space,0,0.298,0,12,12,12,1,4,-0.2,0,,daniel macdonald,001,2022-03-01_14h37.22.238,nBackAlpha3,2020.1.3,Win32,60,,,,,,,,,,
,0,,0,13,13,13,1,4,-0.2,0,space,daniel macdonald,001,2022-03-01_14h37.22.238,nBackAlpha3,2020.1.3,Win32,60,,,,,,,,,,
space,0,0.6474,0,14,14,14,1,8,0,-0.2,,daniel macdonald,001,2022-03-01_14h37.22.238,nBackAlpha3,2020.1.3,Win32,60,,,,,,,,,,
space,0,0.6325,0,15,15,15,1,5,0,0,,daniel macdonald,001,2022-03-01_14h37.22.238,nBackAlpha3,2020.1.3,Win32,60,,,,,,,,,,
space,1,0.4686,0,16,16,16,1,5,0,0,space,daniel macdonald,001,2022-03-01_14h37.22.238,nBackAlpha3,2020.1.3,Win32,60,,,,,,,,,,
space,0,0.4758,0,17,17,17,1,1,-0.2,0.2,,daniel macdonald,001,2022-03-01_14h37.22.238,nBackAlpha3,2020.1.3,Win32,60,,,,,,,,,,
space,0,0.3812,0,18,18,18,1,3,0.2,0.2,,daniel macdonald,001,2022-03-01_14h37.22.238,nBackAlpha3,2020.1.3,Win32,60,,,,,,,,,,
space,0,0.4028,0,19,19,19,1,6,0.2,0,,daniel macdonald,001,2022-03-01_14h37.22.238,nBackAlpha3,2020.1.3,Win32,60,,,,,,,,,,
space,0,1.3997,0,20,20,20,1,1,-0.2,0.2,,daniel macdonald,001,2022-03-01_14h37.22.238,nBackAlpha3,2020.1.3,Win32,60,,,,,,,,,,
space,1,1.0993,0,21,21,21,1,1,-0.2,0.2,space,daniel macdonald,001,2022-03-01_14h37.22.238,nBackAlpha3,2020.1.3,Win32,60,,,,,,,,,,
space,1,1.4916,0,22,22,22,1,1,-0.2,0.2,space,daniel macdonald,001,2022-03-01_14h37.22.238,nBackAlpha3,2020.1.3,Win32,60,,,,,,,,,,
space,0,1.489,0,23,23,23,1,3,0.2,0.2,,daniel macdonald,001,2022-03-01_14h37.22.238,nBackAlpha3,2020.1.3,Win32,60,,,,,,,,,,
space,0,1.3986,0,24,24,24,1,2,0,0.2,,daniel macdonald,001,2022-03-01_14h37.22.238,nBackAlpha3,2020.1.3,Win32,60,,,,,,,,,,
space,0,0.5741,0,25,25,25,1,1,-0.2,0.2,,daniel macdonald,001,2022-03-01_14h37.22.238,nBackAlpha3,2020.1.3,Win32,60,,,,,,,,,,
space,0,0.4541,0,26,26,26,1,7,-0.2,-0.2,,daniel macdonald,001,2022-03-01_14h37.22.238,nBackAlpha3,2020.1.3,Win32,60,,,,,,,,,,
space,1,1.2415,0,27,27,27,1,7,-0.2,-0.2,space,daniel macdonald,001,2022-03-01_14h37.22.238,nBackAlpha3,2020.1.3,Win32,60,,,,,,,,,,
space,0,1.7023,0,28,28,28,1,2,0,0.2,,daniel macdonald,001,2022-03-01_14h37.22.238,nBackAlpha3,2020.1.3,Win32,60,,,,,,,,,,
space,0,1.8237,0,29,29,29,1,6,0.2,0,,daniel macdonald,001,2022-03-01_14h37.22.238,nBackAlpha3,2020.1.3,Win32,60,,,,,,,,,,
space,0,0.9848,0,30,30,30,1,4,-0.2,0,,daniel macdonald,001,2022-03-01_14h37.22.238,nBackAlpha3,2020.1.3,Win32,60,,,,,,,,,,
space,1,1.3497,0,31,31,31,1,4,-0.2,0,space,daniel macdonald,001,2022-03-01_14h37.22.238,nBackAlpha3,2020.1.3,Win32,60,,,,,,,,,,
space,0,0.3881,0,32,32,32,1,2,0,0.2,,daniel macdonald,001,2022-03-01_14h37.22.238,nBackAlpha3,2020.1.3,Win32,60,,,,,,,,,,
space,0,0.0814,0,33,33,33,1,9,0.2,-0.2,,daniel macdonald,001,2022-03-01_14h37.22.238,nBackAlpha3,2020.1.3,Win32,60,,,,,,,,,,
space,1,0.0186,0,34,34,34,1,9,0.2,-0.2,space,daniel macdonald,001,2022-03-01_14h37.22.238,nBackAlpha3,2020.1.3,Win32,60,,,,,,,,,,
space,0,1.9142,0,35,35,35,1,3,0.2,0.2,,daniel macdonald,001,2022-03-01_14h37.22.238,nBackAlpha3,2020.1.3,Win32,60,,,,,,,,,,
space,0,1.8701,0,36,36,36,1,7,-0.2,-0.2,,daniel macdonald,001,2022-03-01_14h37.22.238,nBackAlpha3,2020.1.3,Win32,60,,,,,,,,,,
,0,,0,37,37,37,1,7,-0.2,-0.2,space,daniel macdonald,001,2022-03-01_14h37.22.238,nBackAlpha3,2020.1.3,Win32,60,,,,,,,,,,
space,1,0.3061,0,38,38,38,1,7,-0.2,-0.2,space,daniel macdonald,001,2022-03-01_14h37.22.238,nBackAlpha3,2020.1.3,Win32,60,,,,,,,,,,
space,0,0.2515,0,39,39,39,1,6,0.2,0,,daniel macdonald,001,2022-03-01_14h37.22.238,nBackAlpha3,2020.1.3,Win32,60,,,,,,,,,,
space,1,0.2923,0,40,40,40,1,6,0.2,0,space,daniel macdonald,001,2022-03-01_14h37.22.238,nBackAlpha3,2020.1.3,Win32,60,,,,,,,,,,
space,0,0.5023,0,41,41,41,1,1,-0.2,0.2,,daniel macdonald,001,2022-03-01_14h37.22.238,nBackAlpha3,2020.1.3,Win32,60,,,,,,,,,,
space,0,0.5076,0,42,42,42,1,5,0,0,,daniel macdonald,001,2022-03-01_14h37.22.238,nBackAlpha3,2020.1.3,Win32,60,,,,,,,,,,
space,0,0.4707,0,43,43,43,1,3,0.2,0.2,,daniel macdonald,001,2022-03-01_14h37.22.238,nBackAlpha3,2020.1.3,Win32,60,,,,,,,,,,
space,0,0.7217,0,44,44,44,1,1,-0.2,0.2,,daniel macdonald,001,2022-03-01_14h37.22.238,nBackAlpha3,2020.1.3,Win32,60,,,,,,,,,,
space,0,1.7856,0,45,45,45,1,7,-0.2,-0.2,,daniel macdonald,001,2022-03-01_14h37.22.238,nBackAlpha3,2020.1.3,Win32,60,,,,,,,,,,
space,0,0.8545,0,46,46,46,1,3,0.2,0.2,,daniel macdonald,001,2022-03-01_14h37.22.238,nBackAlpha3,2020.1.3,Win32,60,,,,,,,,,,
space,1,0.3714,0,47,47,47,1,3,0.2,0.2,space,daniel macdonald,001,2022-03-01_14h37.22.238,nBackAlpha3,2020.1.3,Win32,60,,,,,,,,,,
space,0,1.3561,0,48,48,48,1,9,0.2,-0.2,,daniel macdonald,001,2022-03-01_14h37.22.238,nBackAlpha3,2020.1.3,Win32,60,,,,,,,,,,
space,0,1.7976,0,49,49,49,1,7,-0.2,-0.2,,daniel macdonald,001,2022-03-01_14h37.22.238,nBackAlpha3,2020.1.3,Win32,60,,,,,,,,,,
space,0,1.6691,0,50,50,50,1,5,0,0,,daniel macdonald,001,2022-03-01_14h37.22.238,nBackAlpha3,2020.1.3,Win32,60,,,,,,,,,,
space,0,0.6777,0,51,51,51,1,8,0,-0.2,,daniel macdonald,001,2022-03-01_14h37.22.238,nBackAlpha3,2020.1.3,Win32,60,,,,,,,,,,
space,1,0.4795,0,52,52,52,1,8,0,-0.2,space,daniel macdonald,001,2022-03-01_14h37.22.238,nBackAlpha3,2020.1.3,Win32,60,,,,,,,,,,
space,0,1.6985,0,53,53,53,1,7,-0.2,-0.2,,daniel macdonald,001,2022-03-01_14h37.22.238,nBackAlpha3,2020.1.3,Win32,60,,,,,,,,,,
space,0,1.1197,0,54,54,54,1,4,-0.2,0,,daniel macdonald,001,2022-03-01_14h37.22.238,nBackAlpha3,2020.1.3,Win32,60,,,,,,,,,,
space,0,1.4049,0,55,55,55,1,5,0,0,,daniel macdonald,001,2022-03-01_14h37.22.238,nBackAlpha3,2020.1.3,Win32,60,,,,,,,,,,
space,1,1.6394,0,56,56,56,1,5,0,0,space,daniel macdonald,001,2022-03-01_14h37.22.238,nBackAlpha3,2020.1.3,Win32,60,,,,,,,,,,
space,0,1.6487,0,57,57,57,1,2,0,0.2,,daniel macdonald,001,2022-03-01_14h37.22.238,nBackAlpha3,2020.1.3,Win32,60,,,,,,,,,,
space,1,0.7883,0,58,58,58,1,2,0,0.2,space,daniel macdonald,001,2022-03-01_14h37.22.238,nBackAlpha3,2020.1.3,Win32,60,,,,,,,,,,
space,0,1.8949,0,59,59,59,1,6,0.2,0,,daniel macdonald,001,2022-03-01_14h37.22.238,nBackAlpha3,2020.1.3,Win32,60,,,,,,,,,,
space,0,1.2169,,,,,,5,0,0,,daniel macdonald,001,2022-03-01_14h37.22.238,nBackAlpha3,2020.1.3,Win32,60,0,0,0,0,1,,,,,
space,0,1.3751,,,,,,2,0,0.2,,daniel macdonald,001,2022-03-01_14h37.22.238,nBackAlpha3,2020.1.3,Win32,60,0,1,1,1,1,,,,,
,1,,,,,,,6,0.2,0,,daniel macdonald,001,2022-03-01_14h37.22.238,nBackAlpha3,2020.1.3,Win32,60,0,2,2,2,1,,,,,
,1,,,,,,,9,0.2,-0.2,,daniel macdonald,001,2022-03-01_14h37.22.238,nBackAlpha3,2020.1.3,Win32,60,0,3,3,3,1,,,,,
,1,,,,,,,3,0.2,0.2,,daniel macdonald,001,2022-03-01_14h37.22.238,nBackAlpha3,2020.1.3,Win32,60,0,4,4,4,1,,,,,
,0,,,,,,,9,0.2,-0.2,space,daniel macdonald,001,2022-03-01_14h37.22.238,nBackAlpha3,2020.1.3,Win32,60,0,5,5,5,1,,,,,
,1,,,,,,,7,-0.2,-0.2,,daniel macdonald,001,2022-03-01_14h37.22.238,nBackAlpha3,2020.1.3,Win32,60,0,6,6,6,1,,,,,
,1,,,,,,,1,-0.2,0.2,,daniel macdonald,001,2022-03-01_14h37.22.238,nBackAlpha3,2020.1.3,Win32,60,0,7,7,7,1,,,,,
space,0,0.3061,,,,,,5,0,0,,daniel macdonald,001,2022-03-01_14h37.22.238,nBackAlpha3,2020.1.3,Win32,60,0,8,8,8,1,,,,,
,1,,,,,,,7,-0.2,-0.2,,daniel macdonald,001,2022-03-01_14h37.22.238,nBackAlpha3,2020.1.3,Win32,60,0,9,9,9,1,,,,,
space,1,0.3669,,,,,,5,0,0,space,daniel macdonald,001,2022-03-01_14h37.22.238,nBackAlpha3,2020.1.3,Win32,60,0,10,10,10,1,,,,,
,1,,,,,,,6,0.2,0,,daniel macdonald,001,2022-03-01_14h37.22.238,nBackAlpha3,2020.1.3,Win32,60,0,11,11,11,1,,,,,
space,0,0.7094,,,,,,3,0.2,0.2,,daniel macdonald,001,2022-03-01_14h37.22.238,nBackAlpha3,2020.1.3,Win32,60,0,12,12,12,1,,,,,
,0,,,,,,,6,0.2,0,space,daniel macdonald,001,2022-03-01_14h37.22.238,nBackAlpha3,2020.1.3,Win32,60,0,13,13,13,1,,,,,
,1,,,,,,,8,0,-0.2,,daniel macdonald,001,2022-03-01_14h37.22.238,nBackAlpha3,2020.1.3,Win32,60,0,14,14,14,1,,,,,
space,0,0.5232,,,,,,9,0.2,-0.2,,daniel macdonald,001,2022-03-01_14h37.22.238,nBackAlpha3,2020.1.3,Win32,60,0,15,15,15,1,,,,,
space,0,0.5698,,,,,,9,0.2,-0.2,,daniel macdonald,001,2022-03-01_14h37.22.238,nBackAlpha3,2020.1.3,Win32,60,0,16,16,16,1,,,,,
space,0,0.4208,,,,,,1,-0.2,0.2,,daniel macdonald,001,2022-03-01_14h37.22.238,nBackAlpha3,2020.1.3,Win32,60,0,17,17,17,1,,,,,
,1,,,,,,,3,0.2,0.2,,daniel macdonald,001,2022-03-01_14h37.22.238,nBackAlpha3,2020.1.3,Win32,60,0,18,18,18,1,,,,,
space,0,0.612,,,,,,5,0,0,,daniel macdonald,001,2022-03-01_14h37.22.238,nBackAlpha3,2020.1.3,Win32,60,0,19,19,19,1,,,,,
,0,,,,,,,3,0.2,0.2,space,daniel macdonald,001,2022-03-01_14h37.22.238,nBackAlpha3,2020.1.3,Win32,60,0,20,20,20,1,,,,,
,1,,,,,,,4,-0.2,0,,daniel macdonald,001,2022-03-01_14h37.22.238,nBackAlpha3,2020.1.3,Win32,60,0,21,21,21,1,,,,,
space,0,0.8598,,,,,,7,-0.2,-0.2,,daniel macdonald,001,2022-03-01_14h37.22.238,nBackAlpha3,2020.1.3,Win32,60,0,22,22,22,1,,,,,
,0,,,,,,,4,-0.2,0,space,daniel macdonald,001,2022-03-01_14h37.22.238,nBackAlpha3,2020.1.3,Win32,60,0,23,23,23,1,,,,,
space,0,0.318,,,,,,4,-0.2,0,,daniel macdonald,001,2022-03-01_14h37.22.238,nBackAlpha3,2020.1.3,Win32,60,0,24,24,24,1,,,,,
space,0,0.505,,,,,,5,0,0,,daniel macdonald,001,2022-03-01_14h37.22.238,nBackAlpha3,2020.1.3,Win32,60,0,25,25,25,1,,,,,
,1,,,,,,,2,0,0.2,,daniel macdonald,001,2022-03-01_14h37.22.238,nBackAlpha3,2020.1.3,Win32,60,0,26,26,26,1,,,,,
space,0,1.8884,,,,,,6,0.2,0,,daniel macdonald,001,2022-03-01_14h37.22.238,nBackAlpha3,2020.1.3,Win32,60,0,27,27,27,1,,,,,
,1,,,,,,,7,-0.2,-0.2,,daniel macdonald,001,2022-03-01_14h37.22.238,nBackAlpha3,2020.1.3,Win32,60,0,28,28,28,1,,,,,
,0,,,,,,,6,0.2,0,space,daniel macdonald,001,2022-03-01_14h37.22.238,nBackAlpha3,2020.1.3,Win32,60,0,29,29,29,1,,,,,
,1,,,,,,,8,0,-0.2,,daniel macdonald,001,2022-03-01_14h37.22.238,nBackAlpha3,2020.1.3,Win32,60,0,30,30,30,1,,,,,
,1,,,,,,,2,0,0.2,,daniel macdonald,001,2022-03-01_14h37.22.238,nBackAlpha3,2020.1.3,Win32,60,0,31,31,31,1,,,,,
,0,,,,,,,8,0,-0.2,space,daniel macdonald,001,2022-03-01_14h37.22.238,nBackAlpha3,2020.1.3,Win32,60,0,32,32,32,1,,,,,
space,0,0.9057,,,,,,9,0.2,-0.2,,daniel macdonald,001,2022-03-01_14h37.22.238,nBackAlpha3,2020.1.3,Win32,60,0,33,33,33,1,,,,,
,1,,,,,,,6,0.2,0,,daniel macdonald,001,2022-03-01_14h37.22.238,nBackAlpha3,2020.1.3,Win32,60,0,34,34,34,1,,,,,
space,1,0.5026,,,,,,9,0.2,-0.2,space,daniel macdonald,001,2022-03-01_14h37.22.238,nBackAlpha3,2020.1.3,Win32,60,0,35,35,35,1,,,,,
,1,,,,,,,4,-0.2,0,,daniel macdonald,001,2022-03-01_14h37.22.238,nBackAlpha3,2020.1.3,Win32,60,0,36,36,36,1,,,,,
,1,,,,,,,3,0.2,0.2,,daniel macdonald,001,2022-03-01_14h37.22.238,nBackAlpha3,2020.1.3,Win32,60,0,37,37,37,1,,,,,
,1,,,,,,,8,0,-0.2,,daniel macdonald,001,2022-03-01_14h37.22.238,nBackAlpha3,2020.1.3,Win32,60,0,38,38,38,1,,,,,
,0,,,,,,,3,0.2,0.2,space,daniel macdonald,001,2022-03-01_14h37.22.238,nBackAlpha3,2020.1.3,Win32,60,0,39,39,39,1,,,,,
,1,,,,,,,1,-0.2,0.2,,daniel macdonald,001,2022-03-01_14h37.22.238,nBackAlpha3,2020.1.3,Win32,60,0,40,40,40,1,,,,,
space,0,1.0219,,,,,,4,-0.2,0,,daniel macdonald,001,2022-03-01_14h37.22.238,nBackAlpha3,2020.1.3,Win32,60,0,41,41,41,1,,,,,
,1,,,,,,,2,0,0.2,,daniel macdonald,001,2022-03-01_14h37.22.238,nBackAlpha3,2020.1.3,Win32,60,0,42,42,42,1,,,,,
space,1,0.5725,,,,,,4,-0.2,0,space,daniel macdonald,001,2022-03-01_14h37.22.238,nBackAlpha3,2020.1.3,Win32,60,0,43,43,43,1,,,,,
,1,,,,,,,8,0,-0.2,,daniel macdonald,001,2022-03-01_14h37.22.238,nBackAlpha3,2020.1.3,Win32,60,0,44,44,44,1,,,,,
,1,,,,,,,5,0,0,,daniel macdonald,001,2022-03-01_14h37.22.238,nBackAlpha3,2020.1.3,Win32,60,0,45,45,45,1,,,,,
,1,,,,,,,1,-0.2,0.2,,daniel macdonald,001,2022-03-01_14h37.22.238,nBackAlpha3,2020.1.3,Win32,60,0,46,46,46,1,,,,,
,0,,,,,,,5,0,0,space,daniel macdonald,001,2022-03-01_14h37.22.238,nBackAlpha3,2020.1.3,Win32,60,0,47,47,47,1,,,,,
,1,,,,,,,3,0.2,0.2,,daniel macdonald,001,2022-03-01_14h37.22.238,nBackAlpha3,2020.1.3,Win32,60,0,48,48,48,1,,,,,
,1,,,,,,,6,0.2,0,,daniel macdonald,001,2022-03-01_14h37.22.238,nBackAlpha3,2020.1.3,Win32,60,0,49,49,49,1,,,,,
,1,,,,,,,1,-0.2,0.2,,daniel macdonald,001,2022-03-01_14h37.22.238,nBackAlpha3,2020.1.3,Win32,60,0,50,50,50,1,,,,,
,1,,,,,,,3,0.2,0.2,,daniel macdonald,001,2022-03-01_14h37.22.238,nBackAlpha3,2020.1.3,Win32,60,0,51,51,51,1,,,,,
,0,,,,,,,1,-0.2,0.2,space,daniel macdonald,001,2022-03-01_14h37.22.238,nBackAlpha3,2020.1.3,Win32,60,0,52,52,52,1,,,,,
,1,,,,,,,2,0,0.2,,daniel macdonald,001,2022-03-01_14h37.22.238,nBackAlpha3,2020.1.3,Win32,60,0,53,53,53,1,,,,,
space,1,1.0308,,,,,,1,-0.2,0.2,space,daniel macdonald,001,2022-03-01_14h37.22.238,nBackAlpha3,2020.1.3,Win32,60,0,54,54,54,1,,,,,
space,0,0.6838,,,,,,1,-0.2,0.2,,daniel macdonald,001,2022-03-01_14h37.22.238,nBackAlpha3,2020.1.3,Win32,60,0,55,55,55,1,,,,,
,1,,,,,,,7,-0.2,-0.2,,daniel macdonald,001,2022-03-01_14h37.22.238,nBackAlpha3,2020.1.3,Win32,60,0,56,56,56,1,,,,,
,1,,,,,,,2,0,0.2,,daniel macdonald,001,2022-03-01_14h37.22.238,nBackAlpha3,2020.1.3,Win32,60,0,57,57,57,1,,,,,
,0,,,,,,,7,-0.2,-0.2,space,daniel macdonald,001,2022-03-01_14h37.22.238,nBackAlpha3,2020.1.3,Win32,60,0,58,58,58,1,,,,,
,1,,,,,,,6,0.2,0,,daniel macdonald,001,2022-03-01_14h37.22.238,nBackAlpha3,2020.1.3,Win32,60,0,59,59,59,1,,,,,
,1,,,,,,,4,-0.2,0,,daniel macdonald,001,2022-03-01_14h37.22.238,nBackAlpha3,2020.1.3,Win32,60,,,,,,0,0,0,0,1
,1,,,,,,,2,0,0.2,,daniel macdonald,001,2022-03-01_14h37.22.238,nBackAlpha3,2020.1.3,Win32,60,,,,,,0,1,1,1,1
,1,,,,,,,9,0.2,-0.2,,daniel macdonald,001,2022-03-01_14h37.22.238,nBackAlpha3,2020.1.3,Win32,60,,,,,,0,2,2,2,1
space,1,0.3507,,,,,,4,-0.2,0,space,daniel macdonald,001,2022-03-01_14h37.22.238,nBackAlpha3,2020.1.3,Win32,60,,,,,,0,3,3,3,1
,1,,,,,,,3,0.2,0.2,,daniel macdonald,001,2022-03-01_14h37.22.238,nBackAlpha3,2020.1.3,Win32,60,,,,,,0,4,4,4,1
space,1,0.4674,,,,,,9,0.2,-0.2,space,daniel macdonald,001,2022-03-01_14h37.22.238,nBackAlpha3,2020.1.3,Win32,60,,,,,,0,5,5,5,1
space,0,0.4353,,,,,,1,-0.2,0.2,,daniel macdonald,001,2022-03-01_14h37.22.238,nBackAlpha3,2020.1.3,Win32,60,,,,,,0,6,6,6,1
space,0,0.6327,,,,,,1,-0.2,0.2,,daniel macdonald,001,2022-03-01_14h37.22.238,nBackAlpha3,2020.1.3,Win32,60,,,,,,0,7,7,7,1
space,0,0.8175,,,,,,6,0.2,0,,daniel macdonald,001,2022-03-01_14h37.22.238,nBackAlpha3,2020.1.3,Win32,60,,,,,,0,8,8,8,1
,0,,,,,,,1,-0.2,0.2,space,daniel macdonald,001,2022-03-01_14h37.22.238,nBackAlpha3,2020.1.3,Win32,60,,,,,,0,9,9,9,1
,1,,,,,,,5,0,0,,daniel macdonald,001,2022-03-01_14h37.22.238,nBackAlpha3,2020.1.3,Win32,60,,,,,,0,10,10,10,1
space,1,0.9123,,,,,,6,0.2,0,space,daniel macdonald,001,2022-03-01_14h37.22.238,nBackAlpha3,2020.1.3,Win32,60,,,,,,0,11,11,11,1
,1,,,,,,,3,0.2,0.2,,daniel macdonald,001,2022-03-01_14h37.22.238,nBackAlpha3,2020.1.3,Win32,60,,,,,,0,12,12,12,1
space,0,1.1134,,,,,,1,-0.2,0.2,,daniel macdonald,001,2022-03-01_14h37.22.238,nBackAlpha3,2020.1.3,Win32,60,,,,,,0,13,13,13,1
,1,,,,,,,7,-0.2,-0.2,,daniel macdonald,001,2022-03-01_14h37.22.238,nBackAlpha3,2020.1.3,Win32,60,,,,,,0,14,14,14,1
,1,,,,,,,9,0.2,-0.2,,daniel macdonald,001,2022-03-01_14h37.22.238,nBackAlpha3,2020.1.3,Win32,60,,,,,,0,15,15,15,1
space,1,0.72,,,,,,1,-0.2,0.2,space,daniel macdonald,001,2022-03-01_14h37.22.238,nBackAlpha3,2020.1.3,Win32,60,,,,,,0,16,16,16,1
,1,,,,,,,3,0.2,0.2,,daniel macdonald,001,2022-03-01_14h37.22.238,nBackAlpha3,2020.1.3,Win32,60,,,,,,0,17,17,17,1
,1,,,,,,,7,-0.2,-0.2,,daniel macdonald,001,2022-03-01_14h37.22.238,nBackAlpha3,2020.1.3,Win32,60,,,,,,0,18,18,18,1
,1,,,,,,,5,0,0,,daniel macdonald,001,2022-03-01_14h37.22.238,nBackAlpha3,2020.1.3,Win32,60,,,,,,0,19,19,19,1
,0,,,,,,,3,0.2,0.2,space,daniel macdonald,001,2022-03-01_14h37.22.238,nBackAlpha3,2020.1.3,Win32,60,,,,,,0,20,20,20,1
,1,,,,,,,8,0,-0.2,,daniel macdonald,001,2022-03-01_14h37.22.238,nBackAlpha3,2020.1.3,Win32,60,,,,,,0,21,21,21,1
,1,,,,,,,7,-0.2,-0.2,,daniel macdonald,001,2022-03-01_14h37.22.238,nBackAlpha3,2020.1.3,Win32,60,,,,,,0,22,22,22,1
,1,,,,,,,4,-0.2,0,,daniel macdonald,001,2022-03-01_14h37.22.238,nBackAlpha3,2020.1.3,Win32,60,,,,,,0,23,23,23,1
,0,,,,,,,8,0,-0.2,space,daniel macdonald,001,2022-03-01_14h37.22.238,nBackAlpha3,2020.1.3,Win32,60,,,,,,0,24,24,24,1
space,0,0.4186,,,,,,5,0,0,,daniel macdonald,001,2022-03-01_14h37.22.238,nBackAlpha3,2020.1.3,Win32,60,,,,,,0,25,25,25,1
,1,,,,,,,2,0,0.2,,daniel macdonald,001,2022-03-01_14h37.22.238,nBackAlpha3,2020.1.3,Win32,60,,,,,,0,26,26,26,1
,1,,,,,,,6,0.2,0,,daniel macdonald,001,2022-03-01_14h37.22.238,nBackAlpha3,2020.1.3,Win32,60,,,,,,0,27,27,27,1
space,1,0.9606,,,,,,5,0,0,space,daniel macdonald,001,2022-03-01_14h37.22.238,nBackAlpha3,2020.1.3,Win32,60,,,,,,0,28,28,28,1
,0,,,,,,,2,0,0.2,space,daniel macdonald,001,2022-03-01_14h37.22.238,nBackAlpha3,2020.1.3,Win32,60,,,,,,0,29,29,29,1
space,0,0.3924,,,,,,5,0,0,,daniel macdonald,001,2022-03-01_14h37.22.238,nBackAlpha3,2020.1.3,Win32,60,,,,,,0,30,30,30,1
,1,,,,,,,2,0,0.2,,daniel macdonald,001,2022-03-01_14h37.22.238,nBackAlpha3,2020.1.3,Win32,60,,,,,,0,31,31,31,1
space,0,0.6049,,,,,,9,0.2,-0.2,,daniel macdonald,001,2022-03-01_14h37.22.238,nBackAlpha3,2020.1.3,Win32,60,,,,,,0,32,32,32,1
,1,,,,,,,6,0.2,0,,daniel macdonald,001,2022-03-01_14h37.22.238,nBackAlpha3,2020.1.3,Win32,60,,,,,,0,33,33,33,1
,1,,,,,,,3,0.2,0.2,,daniel macdonald,001,2022-03-01_14h37.22.238,nBackAlpha3,2020.1.3,Win32,60,,,,,,0,34,34,34,1
,0,,,,,,,9,0.2,-0.2,space,daniel macdonald,001,2022-03-01_14h37.22.238,nBackAlpha3,2020.1.3,Win32,60,,,,,,0,35,35,35,1
,1,,,,,,,7,-0.2,-0.2,,daniel macdonald,001,2022-03-01_14h37.22.238,nBackAlpha3,2020.1.3,Win32,60,,,,,,0,36,36,36,1
,1,,,,,,,5,0,0,,daniel macdonald,001,2022-03-01_14h37.22.238,nBackAlpha3,2020.1.3,Win32,60,,,,,,0,37,37,37,1
space,0,0.6716,,,,,,1,-0.2,0.2,,daniel macdonald,001,2022-03-01_14h37.22.238,nBackAlpha3,2020.1.3,Win32,60,,,,,,0,38,38,38,1
,1,,,,,,,7,-0.2,-0.2,,daniel macdonald,001,2022-03-01_14h37.22.238,nBackAlpha3,2020.1.3,Win32,60,,,,,,0,39,39,39,1
,0,,,,,,,5,0,0,space,daniel macdonald,001,2022-03-01_14h37.22.238,nBackAlpha3,2020.1.3,Win32,60,,,,,,0,40,40,40,1
space,0,0.7036,,,,,,7,-0.2,-0.2,,daniel macdonald,001,2022-03-01_14h37.22.238,nBackAlpha3,2020.1.3,Win32,60,,,,,,0,41,41,41,1
,1,,,,,,,3,0.2,0.2,,daniel macdonald,001,2022-03-01_14h37.22.238,nBackAlpha3,2020.1.3,Win32,60,,,,,,0,42,42,42,1
space,0,1.39,,,,,,8,0,-0.2,,daniel macdonald,001,2022-03-01_14h37.22.238,nBackAlpha3,2020.1.3,Win32,60,,,,,,0,43,43,43,1
,0,,,,,,,7,-0.2,-0.2,space,daniel macdonald,001,2022-03-01_14h37.22.238,nBackAlpha3,2020.1.3,Win32,60,,,,,,0,44,44,44,1
,1,,,,,,,9,0.2,-0.2,,daniel macdonald,001,2022-03-01_14h37.22.238,nBackAlpha3,2020.1.3,Win32,60,,,,,,0,45,45,45,1
space,0,0.7993,,,,,,9,0.2,-0.2,,daniel macdonald,001,2022-03-01_14h37.22.238,nBackAlpha3,2020.1.3,Win32,60,,,,,,0,46,46,46,1
,1,,,,,,,3,0.2,0.2,,daniel macdonald,001,2022-03-01_14h37.22.238,nBackAlpha3,2020.1.3,Win32,60,,,,,,0,47,47,47,1
,1,,,,,,,1,-0.2,0.2,,daniel macdonald,001,2022-03-01_14h37.22.238,nBackAlpha3,2020.1.3,Win32,60,,,,,,0,48,48,48,1
,1,,,,,,,5,0,0,,daniel macdonald,001,2022-03-01_14h37.22.238,nBackAlpha3,2020.1.3,Win32,60,,,,,,0,49,49,49,1
,0,,,,,,,3,0.2,0.2,space,daniel macdonald,001,2022-03-01_14h37.22.238,nBackAlpha3,2020.1.3,Win32,60,,,,,,0,50,50,50,1
,1,,,,,,,4,-0.2,0,,daniel macdonald,001,2022-03-01_14h37.22.238,nBackAlpha3,2020.1.3,Win32,60,,,,,,0,51,51,51,1
space,0,0.721,,,,,,7,-0.2,-0.2,,daniel macdonald,001,2022-03-01_14h37.22.238,nBackAlpha3,2020.1.3,Win32,60,,,,,,0,52,52,52,1
,1,,,,,,,4,-0.2,0,,daniel macdonald,001,2022-03-01_14h37.22.238,nBackAlpha3,2020.1.3,Win32,60,,,,,,0,53,53,53,1
space,1,0.4523,,,,,,4,-0.2,0,space,daniel macdonald,001,2022-03-01_14h37.22.238,nBackAlpha3,2020.1.3,Win32,60,,,,,,0,54,54,54,1
,1,,,,,,,5,0,0,,daniel macdonald,001,2022-03-01_14h37.22.238,nBackAlpha3,2020.1.3,Win32,60,,,,,,0,55,55,55,1
space,0,0.4701,,,,,,6,0.2,0,,daniel macdonald,001,2022-03-01_14h37.22.238,nBackAlpha3,2020.1.3,Win32,60,,,,,,0,56,56,56,1
,1,,,,,,,2,0,0.2,,daniel macdonald,001,2022-03-01_14h37.22.238,nBackAlpha3,2020.1.3,Win32,60,,,,,,0,57,57,57,1
space,0,0.4894,,,,,,7,-0.2,-0.2,,daniel macdonald,001,2022-03-01_14h37.22.238,nBackAlpha3,2020.1.3,Win32,60,,,,,,0,58,58,58,1
,0,,,,,,,6,0.2,0,space,daniel macdonald,001,2022-03-01_14h37.22.238,nBackAlpha3,2020.1.3,Win32,60,,,,,,0,59,59,59,1
