trialResp.keys,trialResp.corr,trials1.thisRepN,trials1.thisTrialN,trials1.thisN,trials1.thisIndex,trials1.ran,square,loc1,loc2,corrAns,participant,session,date,expName,psychopyVersion,OS,frameRate,trialResp.rt,trials2.thisRepN,trials2.thisTrialN,trials2.thisN,trials2.thisIndex,trials2.ran,trials.thisRepN,trials.thisTrialN,trials.thisN,trials.thisIndex,trials.ran
,1,0,0,0,0,1,6,0.2,0,,ff,001,2023-02-22_16h18.34.022,nBackAlpha3,2020.1.3,Win32,60,,,,,,,,,,,
space,1,0,1,1,1,1,6,0.2,0,space,ff,001,2023-02-22_16h18.34.022,nBackAlpha3,2020.1.3,Win32,60,0.435,,,,,,,,,,
,1,0,2,2,2,1,2,0,0.2,,ff,001,2023-02-22_16h18.34.022,nBackAlpha3,2020.1.3,Win32,60,,,,,,,,,,,
,1,0,3,3,3,1,9,0.2,-0.2,,ff,001,2023-02-22_16h18.34.022,nBackAlpha3,2020.1.3,Win32,60,,,,,,,,,,,
space,1,0,4,4,4,1,9,0.2,-0.2,space,ff,001,2023-02-22_16h18.34.022,nBackAlpha3,2020.1.3,Win32,60,0.385,,,,,,,,,,
,1,0,5,5,5,1,6,0.2,0,,ff,001,2023-02-22_16h18.34.022,nBackAlpha3,2020.1.3,Win32,60,,,,,,,,,,,
,1,0,6,6,6,1,4,-0.2,0,,ff,001,2023-02-22_16h18.34.022,nBackAlpha3,2020.1.3,Win32,60,,,,,,,,,,,
,1,0,7,7,7,1,3,0.2,0.2,,ff,001,2023-02-22_16h18.34.022,nBackAlpha3,2020.1.3,Win32,60,,,,,,,,,,,
space,1,0,8,8,8,1,3,0.2,0.2,space,ff,001,2023-02-22_16h18.34.022,nBackAlpha3,2020.1.3,Win32,60,0.459,,,,,,,,,,
,1,0,9,9,9,1,8,0,-0.2,,ff,001,2023-02-22_16h18.34.022,nBackAlpha3,2020.1.3,Win32,60,,,,,,,,,,,
,1,0,10,10,10,1,1,-0.2,0.2,,ff,001,2023-02-22_16h18.34.022,nBackAlpha3,2020.1.3,Win32,60,,,,,,,,,,,
,1,0,11,11,11,1,2,0,0.2,,ff,001,2023-02-22_16h18.34.022,nBackAlpha3,2020.1.3,Win32,60,,,,,,,,,,,
,1,0,12,12,12,1,4,-0.2,0,,ff,001,2023-02-22_16h18.34.022,nBackAlpha3,2020.1.3,Win32,60,,,,,,,,,,,
space,1,0,13,13,13,1,4,-0.2,0,space,ff,001,2023-02-22_16h18.34.022,nBackAlpha3,2020.1.3,Win32,60,0.57,,,,,,,,,,
,1,0,14,14,14,1,8,0,-0.2,,ff,001,2023-02-22_16h18.34.022,nBackAlpha3,2020.1.3,Win32,60,,,,,,,,,,,
,1,0,15,15,15,1,5,0,0,,ff,001,2023-02-22_16h18.34.022,nBackAlpha3,2020.1.3,Win32,60,,,,,,,,,,,
space,1,0,16,16,16,1,5,0,0,space,ff,001,2023-02-22_16h18.34.022,nBackAlpha3,2020.1.3,Win32,60,0.401,,,,,,,,,,
,1,0,17,17,17,1,1,-0.2,0.2,,ff,001,2023-02-22_16h18.34.022,nBackAlpha3,2020.1.3,Win32,60,,,,,,,,,,,
,1,0,18,18,18,1,3,0.2,0.2,,ff,001,2023-02-22_16h18.34.022,nBackAlpha3,2020.1.3,Win32,60,,,,,,,,,,,
,1,0,19,19,19,1,6,0.2,0,,ff,001,2023-02-22_16h18.34.022,nBackAlpha3,2020.1.3,Win32,60,,,,,,,,,,,
,1,0,20,20,20,1,1,-0.2,0.2,,ff,001,2023-02-22_16h18.34.022,nBackAlpha3,2020.1.3,Win32,60,,,,,,,,,,,
space,1,0,21,21,21,1,1,-0.2,0.2,space,ff,001,2023-02-22_16h18.34.022,nBackAlpha3,2020.1.3,Win32,60,0.486,,,,,,,,,,
space,1,0,22,22,22,1,1,-0.2,0.2,space,ff,001,2023-02-22_16h18.34.022,nBackAlpha3,2020.1.3,Win32,60,0.454,,,,,,,,,,
,1,0,23,23,23,1,3,0.2,0.2,,ff,001,2023-02-22_16h18.34.022,nBackAlpha3,2020.1.3,Win32,60,,,,,,,,,,,
,1,0,24,24,24,1,2,0,0.2,,ff,001,2023-02-22_16h18.34.022,nBackAlpha3,2020.1.3,Win32,60,,,,,,,,,,,
,1,0,25,25,25,1,1,-0.2,0.2,,ff,001,2023-02-22_16h18.34.022,nBackAlpha3,2020.1.3,Win32,60,,,,,,,,,,,
,1,0,26,26,26,1,7,-0.2,-0.2,,ff,001,2023-02-22_16h18.34.022,nBackAlpha3,2020.1.3,Win32,60,,,,,,,,,,,
space,1,0,27,27,27,1,7,-0.2,-0.2,space,ff,001,2023-02-22_16h18.34.022,nBackAlpha3,2020.1.3,Win32,60,0.486,,,,,,,,,,
,1,0,28,28,28,1,2,0,0.2,,ff,001,2023-02-22_16h18.34.022,nBackAlpha3,2020.1.3,Win32,60,,,,,,,,,,,
,1,0,29,29,29,1,6,0.2,0,,ff,001,2023-02-22_16h18.34.022,nBackAlpha3,2020.1.3,Win32,60,,,,,,,,,,,
,1,0,30,30,30,1,4,-0.2,0,,ff,001,2023-02-22_16h18.34.022,nBackAlpha3,2020.1.3,Win32,60,,,,,,,,,,,
space,1,0,31,31,31,1,4,-0.2,0,space,ff,001,2023-02-22_16h18.34.022,nBackAlpha3,2020.1.3,Win32,60,0.453,,,,,,,,,,
,1,0,32,32,32,1,2,0,0.2,,ff,001,2023-02-22_16h18.34.022,nBackAlpha3,2020.1.3,Win32,60,,,,,,,,,,,
,1,0,33,33,33,1,9,0.2,-0.2,,ff,001,2023-02-22_16h18.34.022,nBackAlpha3,2020.1.3,Win32,60,,,,,,,,,,,
space,1,0,34,34,34,1,9,0.2,-0.2,space,ff,001,2023-02-22_16h18.34.022,nBackAlpha3,2020.1.3,Win32,60,0.55,,,,,,,,,,
,1,0,35,35,35,1,3,0.2,0.2,,ff,001,2023-02-22_16h18.34.022,nBackAlpha3,2020.1.3,Win32,60,,,,,,,,,,,
,1,0,36,36,36,1,7,-0.2,-0.2,,ff,001,2023-02-22_16h18.34.022,nBackAlpha3,2020.1.3,Win32,60,,,,,,,,,,,
space,1,0,37,37,37,1,7,-0.2,-0.2,space,ff,001,2023-02-22_16h18.34.022,nBackAlpha3,2020.1.3,Win32,60,0.637,,,,,,,,,,
space,1,0,38,38,38,1,7,-0.2,-0.2,space,ff,001,2023-02-22_16h18.34.022,nBackAlpha3,2020.1.3,Win32,60,0.585,,,,,,,,,,
,1,0,39,39,39,1,6,0.2,0,,ff,001,2023-02-22_16h18.34.022,nBackAlpha3,2020.1.3,Win32,60,,,,,,,,,,,
space,1,0,40,40,40,1,6,0.2,0,space,ff,001,2023-02-22_16h18.34.022,nBackAlpha3,2020.1.3,Win32,60,0.739,,,,,,,,,,
,1,0,41,41,41,1,1,-0.2,0.2,,ff,001,2023-02-22_16h18.34.022,nBackAlpha3,2020.1.3,Win32,60,,,,,,,,,,,
,1,0,42,42,42,1,5,0,0,,ff,001,2023-02-22_16h18.34.022,nBackAlpha3,2020.1.3,Win32,60,,,,,,,,,,,
,1,0,43,43,43,1,3,0.2,0.2,,ff,001,2023-02-22_16h18.34.022,nBackAlpha3,2020.1.3,Win32,60,,,,,,,,,,,
,1,0,44,44,44,1,1,-0.2,0.2,,ff,001,2023-02-22_16h18.34.022,nBackAlpha3,2020.1.3,Win32,60,,,,,,,,,,,
,1,0,45,45,45,1,7,-0.2,-0.2,,ff,001,2023-02-22_16h18.34.022,nBackAlpha3,2020.1.3,Win32,60,,,,,,,,,,,
space,0,0,46,46,46,1,3,0.2,0.2,,ff,001,2023-02-22_16h18.34.022,nBackAlpha3,2020.1.3,Win32,60,0.552,,,,,,,,,,
space,1,0,47,47,47,1,3,0.2,0.2,space,ff,001,2023-02-22_16h18.34.022,nBackAlpha3,2020.1.3,Win32,60,0.67,,,,,,,,,,
,1,0,48,48,48,1,9,0.2,-0.2,,ff,001,2023-02-22_16h18.34.022,nBackAlpha3,2020.1.3,Win32,60,,,,,,,,,,,
,1,0,49,49,49,1,7,-0.2,-0.2,,ff,001,2023-02-22_16h18.34.022,nBackAlpha3,2020.1.3,Win32,60,,,,,,,,,,,
,1,0,50,50,50,1,5,0,0,,ff,001,2023-02-22_16h18.34.022,nBackAlpha3,2020.1.3,Win32,60,,,,,,,,,,,
,1,0,51,51,51,1,8,0,-0.2,,ff,001,2023-02-22_16h18.34.022,nBackAlpha3,2020.1.3,Win32,60,,,,,,,,,,,
space,1,0,52,52,52,1,8,0,-0.2,space,ff,001,2023-02-22_16h18.34.022,nBackAlpha3,2020.1.3,Win32,60,0.521,,,,,,,,,,
,1,0,53,53,53,1,7,-0.2,-0.2,,ff,001,2023-02-22_16h18.34.022,nBackAlpha3,2020.1.3,Win32,60,,,,,,,,,,,
,1,0,54,54,54,1,4,-0.2,0,,ff,001,2023-02-22_16h18.34.022,nBackAlpha3,2020.1.3,Win32,60,,,,,,,,,,,
,1,0,55,55,55,1,5,0,0,,ff,001,2023-02-22_16h18.34.022,nBackAlpha3,2020.1.3,Win32,60,,,,,,,,,,,
space,1,0,56,56,56,1,5,0,0,space,ff,001,2023-02-22_16h18.34.022,nBackAlpha3,2020.1.3,Win32,60,0.636,,,,,,,,,,
,1,0,57,57,57,1,2,0,0.2,,ff,001,2023-02-22_16h18.34.022,nBackAlpha3,2020.1.3,Win32,60,,,,,,,,,,,
space,1,0,58,58,58,1,2,0,0.2,space,ff,001,2023-02-22_16h18.34.022,nBackAlpha3,2020.1.3,Win32,60,0.454,,,,,,,,,,
,1,0,59,59,59,1,6,0.2,0,,ff,001,2023-02-22_16h18.34.022,nBackAlpha3,2020.1.3,Win32,60,,,,,,,,,,,
,1,,,,,,5,0,0,,ff,001,2023-02-22_16h18.34.022,nBackAlpha3,2020.1.3,Win32,60,,0,0,0,0,1,,,,,
,1,,,,,,2,0,0.2,,ff,001,2023-02-22_16h18.34.022,nBackAlpha3,2020.1.3,Win32,60,,0,1,1,1,1,,,,,
,1,,,,,,6,0.2,0,,ff,001,2023-02-22_16h18.34.022,nBackAlpha3,2020.1.3,Win32,60,,0,2,2,2,1,,,,,
,1,,,,,,9,0.2,-0.2,,ff,001,2023-02-22_16h18.34.022,nBackAlpha3,2020.1.3,Win32,60,,0,3,3,3,1,,,,,
,1,,,,,,3,0.2,0.2,,ff,001,2023-02-22_16h18.34.022,nBackAlpha3,2020.1.3,Win32,60,,0,4,4,4,1,,,,,
,0,,,,,,9,0.2,-0.2,space,ff,001,2023-02-22_16h18.34.022,nBackAlpha3,2020.1.3,Win32,60,,0,5,5,5,1,,,,,
,1,,,,,,7,-0.2,-0.2,,ff,001,2023-02-22_16h18.34.022,nBackAlpha3,2020.1.3,Win32,60,,0,6,6,6,1,,,,,
,1,,,,,,1,-0.2,0.2,,ff,001,2023-02-22_16h18.34.022,nBackAlpha3,2020.1.3,Win32,60,,0,7,7,7,1,,,,,
,1,,,,,,5,0,0,,ff,001,2023-02-22_16h18.34.022,nBackAlpha3,2020.1.3,Win32,60,,0,8,8,8,1,,,,,
,1,,,,,,7,-0.2,-0.2,,ff,001,2023-02-22_16h18.34.022,nBackAlpha3,2020.1.3,Win32,60,,0,9,9,9,1,,,,,
space,1,,,,,,5,0,0,space,ff,001,2023-02-22_16h18.34.022,nBackAlpha3,2020.1.3,Win32,60,0.386,0,10,10,10,1,,,,,
,1,,,,,,6,0.2,0,,ff,001,2023-02-22_16h18.34.022,nBackAlpha3,2020.1.3,Win32,60,,0,11,11,11,1,,,,,
,1,,,,,,3,0.2,0.2,,ff,001,2023-02-22_16h18.34.022,nBackAlpha3,2020.1.3,Win32,60,,0,12,12,12,1,,,,,
,0,,,,,,6,0.2,0,space,ff,001,2023-02-22_16h18.34.022,nBackAlpha3,2020.1.3,Win32,60,,0,13,13,13,1,,,,,
space,0,,,,,,8,0,-0.2,,ff,001,2023-02-22_16h18.34.022,nBackAlpha3,2020.1.3,Win32,60,0.685,0,14,14,14,1,,,,,
,1,,,,,,9,0.2,-0.2,,ff,001,2023-02-22_16h18.34.022,nBackAlpha3,2020.1.3,Win32,60,,0,15,15,15,1,,,,,
,1,,,,,,9,0.2,-0.2,,ff,001,2023-02-22_16h18.34.022,nBackAlpha3,2020.1.3,Win32,60,,0,16,16,16,1,,,,,
,1,,,,,,1,-0.2,0.2,,ff,001,2023-02-22_16h18.34.022,nBackAlpha3,2020.1.3,Win32,60,,0,17,17,17,1,,,,,
,1,,,,,,3,0.2,0.2,,ff,001,2023-02-22_16h18.34.022,nBackAlpha3,2020.1.3,Win32,60,,0,18,18,18,1,,,,,
,1,,,,,,5,0,0,,ff,001,2023-02-22_16h18.34.022,nBackAlpha3,2020.1.3,Win32,60,,0,19,19,19,1,,,,,
space,1,,,,,,3,0.2,0.2,space,ff,001,2023-02-22_16h18.34.022,nBackAlpha3,2020.1.3,Win32,60,1.104,0,20,20,20,1,,,,,
,1,,,,,,4,-0.2,0,,ff,001,2023-02-22_16h18.34.022,nBackAlpha3,2020.1.3,Win32,60,,0,21,21,21,1,,,,,
,1,,,,,,7,-0.2,-0.2,,ff,001,2023-02-22_16h18.34.022,nBackAlpha3,2020.1.3,Win32,60,,0,22,22,22,1,,,,,
space,1,,,,,,4,-0.2,0,space,ff,001,2023-02-22_16h18.34.022,nBackAlpha3,2020.1.3,Win32,60,0.403,0,23,23,23,1,,,,,
space,0,,,,,,4,-0.2,0,,ff,001,2023-02-22_16h18.34.022,nBackAlpha3,2020.1.3,Win32,60,0.738,0,24,24,24,1,,,,,
,1,,,,,,5,0,0,,ff,001,2023-02-22_16h18.34.022,nBackAlpha3,2020.1.3,Win32,60,,0,25,25,25,1,,,,,
,1,,,,,,2,0,0.2,,ff,001,2023-02-22_16h18.34.022,nBackAlpha3,2020.1.3,Win32,60,,0,26,26,26,1,,,,,
,1,,,,,,6,0.2,0,,ff,001,2023-02-22_16h18.34.022,nBackAlpha3,2020.1.3,Win32,60,,0,27,27,27,1,,,,,
,1,,,,,,7,-0.2,-0.2,,ff,001,2023-02-22_16h18.34.022,nBackAlpha3,2020.1.3,Win32,60,,0,28,28,28,1,,,,,
,0,,,,,,6,0.2,0,space,ff,001,2023-02-22_16h18.34.022,nBackAlpha3,2020.1.3,Win32,60,,0,29,29,29,1,,,,,
,1,,,,,,8,0,-0.2,,ff,001,2023-02-22_16h18.34.022,nBackAlpha3,2020.1.3,Win32,60,,0,30,30,30,1,,,,,
,1,,,,,,2,0,0.2,,ff,001,2023-02-22_16h18.34.022,nBackAlpha3,2020.1.3,Win32,60,,0,31,31,31,1,,,,,
,0,,,,,,8,0,-0.2,space,ff,001,2023-02-22_16h18.34.022,nBackAlpha3,2020.1.3,Win32,60,,0,32,32,32,1,,,,,
space,0,,,,,,9,0.2,-0.2,,ff,001,2023-02-22_16h18.34.022,nBackAlpha3,2020.1.3,Win32,60,1.553,0,33,33,33,1,,,,,
,1,,,,,,6,0.2,0,,ff,001,2023-02-22_16h18.34.022,nBackAlpha3,2020.1.3,Win32,60,,0,34,34,34,1,,,,,
,0,,,,,,9,0.2,-0.2,space,ff,001,2023-02-22_16h18.34.022,nBackAlpha3,2020.1.3,Win32,60,,0,35,35,35,1,,,,,
space,0,,,,,,4,-0.2,0,,ff,001,2023-02-22_16h18.34.022,nBackAlpha3,2020.1.3,Win32,60,1.137,0,36,36,36,1,,,,,
,1,,,,,,3,0.2,0.2,,ff,001,2023-02-22_16h18.34.022,nBackAlpha3,2020.1.3,Win32,60,,0,37,37,37,1,,,,,
,1,,,,,,8,0,-0.2,,ff,001,2023-02-22_16h18.34.022,nBackAlpha3,2020.1.3,Win32,60,,0,38,38,38,1,,,,,
,0,,,,,,3,0.2,0.2,space,ff,001,2023-02-22_16h18.34.022,nBackAlpha3,2020.1.3,Win32,60,,0,39,39,39,1,,,,,
,1,,,,,,1,-0.2,0.2,,ff,001,2023-02-22_16h18.34.022,nBackAlpha3,2020.1.3,Win32,60,,0,40,40,40,1,,,,,
,1,,,,,,4,-0.2,0,,ff,001,2023-02-22_16h18.34.022,nBackAlpha3,2020.1.3,Win32,60,,0,41,41,41,1,,,,,
,1,,,,,,2,0,0.2,,ff,001,2023-02-22_16h18.34.022,nBackAlpha3,2020.1.3,Win32,60,,0,42,42,42,1,,,,,
space,1,,,,,,4,-0.2,0,space,ff,001,2023-02-22_16h18.34.022,nBackAlpha3,2020.1.3,Win32,60,0.402,0,43,43,43,1,,,,,
,1,,,,,,8,0,-0.2,,ff,001,2023-02-22_16h18.34.022,nBackAlpha3,2020.1.3,Win32,60,,0,44,44,44,1,,,,,
,1,,,,,,5,0,0,,ff,001,2023-02-22_16h18.34.022,nBackAlpha3,2020.1.3,Win32,60,,0,45,45,45,1,,,,,
,1,,,,,,1,-0.2,0.2,,ff,001,2023-02-22_16h18.34.022,nBackAlpha3,2020.1.3,Win32,60,,0,46,46,46,1,,,,,
space,1,,,,,,5,0,0,space,ff,001,2023-02-22_16h18.34.022,nBackAlpha3,2020.1.3,Win32,60,0.555,0,47,47,47,1,,,,,
,1,,,,,,3,0.2,0.2,,ff,001,2023-02-22_16h18.34.022,nBackAlpha3,2020.1.3,Win32,60,,0,48,48,48,1,,,,,
,1,,,,,,6,0.2,0,,ff,001,2023-02-22_16h18.34.022,nBackAlpha3,2020.1.3,Win32,60,,0,49,49,49,1,,,,,
,1,,,,,,1,-0.2,0.2,,ff,001,2023-02-22_16h18.34.022,nBackAlpha3,2020.1.3,Win32,60,,0,50,50,50,1,,,,,
,1,,,,,,3,0.2,0.2,,ff,001,2023-02-22_16h18.34.022,nBackAlpha3,2020.1.3,Win32,60,,0,51,51,51,1,,,,,
space,1,,,,,,1,-0.2,0.2,space,ff,001,2023-02-22_16h18.34.022,nBackAlpha3,2020.1.3,Win32,60,1.338,0,52,52,52,1,,,,,
,1,,,,,,2,0,0.2,,ff,001,2023-02-22_16h18.34.022,nBackAlpha3,2020.1.3,Win32,60,,0,53,53,53,1,,,,,
space,1,,,,,,1,-0.2,0.2,space,ff,001,2023-02-22_16h18.34.022,nBackAlpha3,2020.1.3,Win32,60,1.122,0,54,54,54,1,,,,,
,1,,,,,,1,-0.2,0.2,,ff,001,2023-02-22_16h18.34.022,nBackAlpha3,2020.1.3,Win32,60,,0,55,55,55,1,,,,,
,1,,,,,,7,-0.2,-0.2,,ff,001,2023-02-22_16h18.34.022,nBackAlpha3,2020.1.3,Win32,60,,0,56,56,56,1,,,,,
,1,,,,,,2,0,0.2,,ff,001,2023-02-22_16h18.34.022,nBackAlpha3,2020.1.3,Win32,60,,0,57,57,57,1,,,,,
,0,,,,,,7,-0.2,-0.2,space,ff,001,2023-02-22_16h18.34.022,nBackAlpha3,2020.1.3,Win32,60,,0,58,58,58,1,,,,,
,1,,,,,,6,0.2,0,,ff,001,2023-02-22_16h18.34.022,nBackAlpha3,2020.1.3,Win32,60,,0,59,59,59,1,,,,,
,1,,,,,,4,-0.2,0,,ff,001,2023-02-22_16h18.34.022,nBackAlpha3,2020.1.3,Win32,60,,,,,,,0,0,0,0,1
,1,,,,,,2,0,0.2,,ff,001,2023-02-22_16h18.34.022,nBackAlpha3,2020.1.3,Win32,60,,,,,,,0,1,1,1,1
,1,,,,,,9,0.2,-0.2,,ff,001,2023-02-22_16h18.34.022,nBackAlpha3,2020.1.3,Win32,60,,,,,,,0,2,2,2,1
space,1,,,,,,4,-0.2,0,space,ff,001,2023-02-22_16h18.34.022,nBackAlpha3,2020.1.3,Win32,60,0.387,,,,,,0,3,3,3,1
,1,,,,,,3,0.2,0.2,,ff,001,2023-02-22_16h18.34.022,nBackAlpha3,2020.1.3,Win32,60,,,,,,,0,4,4,4,1
space,1,,,,,,9,0.2,-0.2,space,ff,001,2023-02-22_16h18.34.022,nBackAlpha3,2020.1.3,Win32,60,0.853,,,,,,0,5,5,5,1
,1,,,,,,1,-0.2,0.2,,ff,001,2023-02-22_16h18.34.022,nBackAlpha3,2020.1.3,Win32,60,,,,,,,0,6,6,6,1
,1,,,,,,1,-0.2,0.2,,ff,001,2023-02-22_16h18.34.022,nBackAlpha3,2020.1.3,Win32,60,,,,,,,0,7,7,7,1
space,0,,,,,,6,0.2,0,,ff,001,2023-02-22_16h18.34.022,nBackAlpha3,2020.1.3,Win32,60,0.369,,,,,,0,8,8,8,1
,0,,,,,,1,-0.2,0.2,space,ff,001,2023-02-22_16h18.34.022,nBackAlpha3,2020.1.3,Win32,60,,,,,,,0,9,9,9,1
space,0,,,,,,5,0,0,,ff,001,2023-02-22_16h18.34.022,nBackAlpha3,2020.1.3,Win32,60,0.935,,,,,,0,10,10,10,1
,0,,,,,,6,0.2,0,space,ff,001,2023-02-22_16h18.34.022,nBackAlpha3,2020.1.3,Win32,60,,,,,,,0,11,11,11,1
,1,,,,,,3,0.2,0.2,,ff,001,2023-02-22_16h18.34.022,nBackAlpha3,2020.1.3,Win32,60,,,,,,,0,12,12,12,1
space,0,,,,,,1,-0.2,0.2,,ff,001,2023-02-22_16h18.34.022,nBackAlpha3,2020.1.3,Win32,60,1.951,,,,,,0,13,13,13,1
,1,,,,,,7,-0.2,-0.2,,ff,001,2023-02-22_16h18.34.022,nBackAlpha3,2020.1.3,Win32,60,,,,,,,0,14,14,14,1
,1,,,,,,9,0.2,-0.2,,ff,001,2023-02-22_16h18.34.022,nBackAlpha3,2020.1.3,Win32,60,,,,,,,0,15,15,15,1
space,1,,,,,,1,-0.2,0.2,space,ff,001,2023-02-22_16h18.34.022,nBackAlpha3,2020.1.3,Win32,60,0.417,,,,,,0,16,16,16,1
,1,,,,,,3,0.2,0.2,,ff,001,2023-02-22_16h18.34.022,nBackAlpha3,2020.1.3,Win32,60,,,,,,,0,17,17,17,1
space,0,,,,,,7,-0.2,-0.2,,ff,001,2023-02-22_16h18.34.022,nBackAlpha3,2020.1.3,Win32,60,0.622,,,,,,0,18,18,18,1
,1,,,,,,5,0,0,,ff,001,2023-02-22_16h18.34.022,nBackAlpha3,2020.1.3,Win32,60,,,,,,,0,19,19,19,1
,0,,,,,,3,0.2,0.2,space,ff,001,2023-02-22_16h18.34.022,nBackAlpha3,2020.1.3,Win32,60,,,,,,,0,20,20,20,1
,1,,,,,,8,0,-0.2,,ff,001,2023-02-22_16h18.34.022,nBackAlpha3,2020.1.3,Win32,60,,,,,,,0,21,21,21,1
space,0,,,,,,7,-0.2,-0.2,,ff,001,2023-02-22_16h18.34.022,nBackAlpha3,2020.1.3,Win32,60,1.422,,,,,,0,22,22,22,1
space,0,,,,,,4,-0.2,0,,ff,001,2023-02-22_16h18.34.022,nBackAlpha3,2020.1.3,Win32,60,0.686,,,,,,0,23,23,23,1
,0,,,,,,8,0,-0.2,space,ff,001,2023-02-22_16h18.34.022,nBackAlpha3,2020.1.3,Win32,60,,,,,,,0,24,24,24,1
space,0,,,,,,5,0,0,,ff,001,2023-02-22_16h18.34.022,nBackAlpha3,2020.1.3,Win32,60,0.282,,,,,,0,25,25,25,1
space,0,,,,,,2,0,0.2,,ff,001,2023-02-22_16h18.34.022,nBackAlpha3,2020.1.3,Win32,60,0.303,,,,,,0,26,26,26,1
space,0,,,,,,6,0.2,0,,ff,001,2023-02-22_16h18.34.022,nBackAlpha3,2020.1.3,Win32,60,0.653,,,,,,0,27,27,27,1
space,1,,,,,,5,0,0,space,ff,001,2023-02-22_16h18.34.022,nBackAlpha3,2020.1.3,Win32,60,0.454,,,,,,0,28,28,28,1
,0,,,,,,2,0,0.2,space,ff,001,2023-02-22_16h18.34.022,nBackAlpha3,2020.1.3,Win32,60,,,,,,,0,29,29,29,1
,1,,,,,,5,0,0,,ff,001,2023-02-22_16h18.34.022,nBackAlpha3,2020.1.3,Win32,60,,,,,,,0,30,30,30,1
space,0,,,,,,2,0,0.2,,ff,001,2023-02-22_16h18.34.022,nBackAlpha3,2020.1.3,Win32,60,0.539,,,,,,0,31,31,31,1
,1,,,,,,9,0.2,-0.2,,ff,001,2023-02-22_16h18.34.022,nBackAlpha3,2020.1.3,Win32,60,,,,,,,0,32,32,32,1
space,0,,,,,,6,0.2,0,,ff,001,2023-02-22_16h18.34.022,nBackAlpha3,2020.1.3,Win32,60,0.768,,,,,,0,33,33,33,1
,1,,,,,,3,0.2,0.2,,ff,001,2023-02-22_16h18.34.022,nBackAlpha3,2020.1.3,Win32,60,,,,,,,0,34,34,34,1
,0,,,,,,9,0.2,-0.2,space,ff,001,2023-02-22_16h18.34.022,nBackAlpha3,2020.1.3,Win32,60,,,,,,,0,35,35,35,1
space,0,,,,,,7,-0.2,-0.2,,ff,001,2023-02-22_16h18.34.022,nBackAlpha3,2020.1.3,Win32,60,0.101,,,,,,0,36,36,36,1
space,0,,,,,,5,0,0,,ff,001,2023-02-22_16h18.34.022,nBackAlpha3,2020.1.3,Win32,60,0.669,,,,,,0,37,37,37,1
space,0,,,,,,1,-0.2,0.2,,ff,001,2023-02-22_16h18.34.022,nBackAlpha3,2020.1.3,Win32,60,0.802,,,,,,0,38,38,38,1
,1,,,,,,7,-0.2,-0.2,,ff,001,2023-02-22_16h18.34.022,nBackAlpha3,2020.1.3,Win32,60,,,,,,,0,39,39,39,1
space,1,,,,,,5,0,0,space,ff,001,2023-02-22_16h18.34.022,nBackAlpha3,2020.1.3,Win32,60,0.153,,,,,,0,40,40,40,1
,1,,,,,,7,-0.2,-0.2,,ff,001,2023-02-22_16h18.34.022,nBackAlpha3,2020.1.3,Win32,60,,,,,,,0,41,41,41,1
,1,,,,,,3,0.2,0.2,,ff,001,2023-02-22_16h18.34.022,nBackAlpha3,2020.1.3,Win32,60,,,,,,,0,42,42,42,1
space,0,,,,,,8,0,-0.2,,ff,001,2023-02-22_16h18.34.022,nBackAlpha3,2020.1.3,Win32,60,0.002,,,,,,0,43,43,43,1
space,1,,,,,,7,-0.2,-0.2,space,ff,001,2023-02-22_16h18.34.022,nBackAlpha3,2020.1.3,Win32,60,0.585,,,,,,0,44,44,44,1
space,0,,,,,,9,0.2,-0.2,,ff,001,2023-02-22_16h18.34.022,nBackAlpha3,2020.1.3,Win32,60,1.686,,,,,,0,45,45,45,1
,1,,,,,,9,0.2,-0.2,,ff,001,2023-02-22_16h18.34.022,nBackAlpha3,2020.1.3,Win32,60,,,,,,,0,46,46,46,1
,1,,,,,,3,0.2,0.2,,ff,001,2023-02-22_16h18.34.022,nBackAlpha3,2020.1.3,Win32,60,,,,,,,0,47,47,47,1
space,0,,,,,,1,-0.2,0.2,,ff,001,2023-02-22_16h18.34.022,nBackAlpha3,2020.1.3,Win32,60,1.689,,,,,,0,48,48,48,1
,1,,,,,,5,0,0,,ff,001,2023-02-22_16h18.34.022,nBackAlpha3,2020.1.3,Win32,60,,,,,,,0,49,49,49,1
space,1,,,,,,3,0.2,0.2,space,ff,001,2023-02-22_16h18.34.022,nBackAlpha3,2020.1.3,Win32,60,0.486,,,,,,0,50,50,50,1
space,0,,,,,,4,-0.2,0,,ff,001,2023-02-22_16h18.34.022,nBackAlpha3,2020.1.3,Win32,60,0.77,,,,,,0,51,51,51,1
,1,,,,,,7,-0.2,-0.2,,ff,001,2023-02-22_16h18.34.022,nBackAlpha3,2020.1.3,Win32,60,,,,,,,0,52,52,52,1
space,0,,,,,,4,-0.2,0,,ff,001,2023-02-22_16h18.34.022,nBackAlpha3,2020.1.3,Win32,60,0.783,,,,,,0,53,53,53,1
space,1,,,,,,4,-0.2,0,space,ff,001,2023-02-22_16h18.34.022,nBackAlpha3,2020.1.3,Win32,60,0.721,,,,,,0,54,54,54,1
space,0,,,,,,5,0,0,,ff,001,2023-02-22_16h18.34.022,nBackAlpha3,2020.1.3,Win32,60,0.62,,,,,,0,55,55,55,1
,1,,,,,,6,0.2,0,,ff,001,2023-02-22_16h18.34.022,nBackAlpha3,2020.1.3,Win32,60,,,,,,,0,56,56,56,1
,1,,,,,,2,0,0.2,,ff,001,2023-02-22_16h18.34.022,nBackAlpha3,2020.1.3,Win32,60,,,,,,,0,57,57,57,1
,1,,,,,,7,-0.2,-0.2,,ff,001,2023-02-22_16h18.34.022,nBackAlpha3,2020.1.3,Win32,60,,,,,,,0,58,58,58,1
space,1,,,,,,6,0.2,0,space,ff,001,2023-02-22_16h18.34.022,nBackAlpha3,2020.1.3,Win32,60,1.738,,,,,,0,59,59,59,1
